timestamp,accelX,accelY,accelZ,gravX,gravY,gravZ,angVelX,angVelY,angVelZ,pitch,roll,heading,w,x,y,z,temprature,sysCal,gyroCal,accelCal,magCal
1349,978,4,-90,0,0,0,-21,-58,-34,0.00,0.00,0.00,0.00,0.00,0.00,0.00,11,0,3,3,3
1379,991,-5,-95,3,-1,980,-53,-53,-81,-0.06,0.19,0.19,1.00,-0.00,-0.00,-0.00,11,0,3,3,3
1406,988,13,-98,3,-2,980,-27,40,-32,-0.13,0.13,0.25,1.00,-0.00,-0.00,-0.00,11,0,3,3,3
1438,949,10,-78,976,6,-85,-29,18,-24,179.63,84.94,90.56,0.68,0.00,-0.74,-0.00,11,0,3,3,3
1466,954,0,-80,976,6,-86,-40,-14,-32,179.56,84.88,90.69,0.68,0.00,-0.74,-0.00,11,0,3,3,3
1494,965,9,-90,976,8,-86,-23,-5,-37,179.50,84.88,90.75,0.68,0.00,-0.74,-0.00,11,0,3,3,3
1522,943,10,-61,976,9,-85,-39,28,-38,179.44,84.94,90.88,0.68,0.00,-0.74,-0.01,11,0,3,3,3
1551,956,-1,-52,976,9,-85,-26,0,-1,179.38,84.94,91.00,0.68,0.00,-0.74,-0.01,11,0,3,3,3
1579,969,3,-63,976,9,-85,-13,-28,-11,179.38,84.94,91.00,0.68,0.00,-0.74,-0.01,11,0,3,3,3
1609,988,0,-78,976,10,-86,-10,9,-23,179.38,84.88,91.06,0.68,0.00,-0.74,-0.01,11,0,3,3,3
1637,961,12,-79,976,10,-85,0,62,-28,179.31,85.00,91.13,0.68,0.00,-0.74,-0.01,11,0,3,3,3
1666,945,16,-68,977,11,-83,-11,46,-41,179.25,85.06,91.19,0.68,0.00,-0.74,-0.01,11,0,3,3,3
1692,954,19,-77,977,13,-82,-2,45,-36,179.19,85.13,91.25,0.68,0.00,-0.74,-0.01,11,0,3,3,3
1721,941,17,-70,977,14,-80,-9,44,-36,179.13,85.19,91.31,0.68,0.00,-0.74,-0.01,11,0,3,3,3
1747,957,19,-75,977,15,-79,-20,56,-85,179.00,85.25,91.44,0.68,0.00,-0.74,-0.01,11,0,3,3,3
1779,945,23,-64,977,18,-77,-20,79,-110,178.81,85.31,91.69,0.68,0.00,-0.73,-0.01,11,0,3,3,3
1806,943,19,-57,977,22,-75,-39,42,-113,178.63,85.38,91.88,0.68,0.00,-0.73,-0.01,11,0,3,3,3
1836,968,24,-67,977,24,-74,-8,36,-56,178.50,85.38,92.06,0.68,0.01,-0.73,-0.01,11,0,3,3,3
1863,949,18,-63,977,26,-72,-8,55,-36,178.44,85.44,92.13,0.68,0.01,-0.73,-0.01,11,0,3,3,3
1890,949,38,-68,977,27,-71,-8,70,-56,178.38,85.50,92.25,0.68,0.01,-0.73,-0.01,11,0,3,3,3
1920,950,22,-59,977,29,-69,-55,54,-96,178.19,85.56,92.50,0.68,0.01,-0.73,-0.01,11,0,3,3,3
1946,967,29,-64,977,32,-67,-32,31,-96,178.06,85.56,92.63,0.68,0.01,-0.73,-0.02,11,0,3,3,3
1975,954,38,-59,977,37,-66,-56,60,-156,177.81,85.50,93.00,0.68,0.01,-0.73,-0.02,11,0,3,3,3
2002,945,45,-64,977,41,-63,-61,69,-128,177.56,85.50,93.38,0.68,0.01,-0.73,-0.02,11,0,3,3,3
2029,960,41,-56,977,44,-62,-58,59,-119,177.38,85.50,93.56,0.68,0.01,-0.73,-0.02,11,0,3,3,3
2057,965,45,-53,977,48,-60,-72,64,-143,177.13,85.44,93.94,0.68,0.01,-0.73,-0.02,11,0,3,3,3
2088,949,55,-45,977,53,-57,-55,95,-136,176.88,85.38,94.31,0.69,0.01,-0.73,-0.03,11,0,3,3,3
2116,992,61,-61,977,57,-55,-61,56,-135,176.63,85.31,94.63,0.69,0.01,-0.73,-0.03,11,0,3,3,3
2143,1005,69,-73,977,64,-52,-99,133,-277,176.25,85.13,95.19,0.69,0.01,-0.73,-0.03,11,0,3,3,3
2170,964,98,-50,976,70,-48,-127,199,-296,175.69,84.94,95.94,0.69,0.02,-0.72,-0.04,11,0,3,3,3
2198,951,59,-16,976,77,-42,-132,175,-178,175.44,84.81,96.31,0.69,0.02,-0.72,-0.04,11,0,3,3,3
2231,963,76,-24,976,81,-37,-64,146,-107,175.19,84.75,96.69,0.69,0.02,-0.72,-0.04,11,0,3,3,3
2257,914,100,-9,976,84,-32,-88,84,-112,175.06,84.69,97.00,0.69,0.02,-0.72,-0.04,11,0,3,3,3
2287,934,84,-12,976,89,-31,-107,39,-159,174.75,84.44,97.50,0.69,0.02,-0.72,-0.05,11,0,3,3,3
2316,940,79,-5,975,92,-29,-59,62,-78,174.56,84.31,97.81,0.69,0.02,-0.72,-0.05,11,0,3,3,3
2342,911,88,11,975,93,-27,-30,39,-32,174.50,84.25,97.94,0.70,0.02,-0.72,-0.05,11,0,3,3,3
2369,909,93,4,975,94,-26,-24,-22,-38,174.44,84.19,98.00,0.70,0.02,-0.72,-0.05,11,0,3,3,3
2400,942,82,-4,975,95,-28,-12,-67,-17,174.38,84.13,98.13,0.69,0.02,-0.72,-0.05,11,0,3,3,3
2428,944,99,-10,975,95,-30,9,-49,-9,174.38,84.13,98.13,0.69,0.02,-0.72,-0.05,11,0,3,3,3
2456,927,92,-14,975,95,-31,25,-40,15,174.38,84.13,98.06,0.69,0.02,-0.72,-0.05,11,0,3,3,3
2483,907,112,-17,975,94,-32,42,-49,40,174.44,84.13,97.94,0.69,0.02,-0.72,-0.05,11,0,3,3,3
2509,932,101,-16,975,92,-34,8,-109,51,174.50,84.19,97.88,0.69,0.02,-0.72,-0.05,11,0,3,3,3
2538,947,104,-27,975,91,-37,34,-43,74,174.63,84.19,97.75,0.69,0.02,-0.72,-0.05,11,0,3,3,3
2570,902,120,-29,975,87,-38,17,-52,120,174.81,84.38,97.50,0.69,0.02,-0.72,-0.05,11,0,3,3,3
2596,939,90,-18,976,82,-41,-12,-142,187,175.13,84.56,97.25,0.69,0.02,-0.72,-0.04,11,0,3,3,3
2624,959,90,-31,976,79,-44,10,-128,147,175.44,84.69,96.94,0.69,0.01,-0.72,-0.04,11,0,3,3,3
2651,999,86,-55,976,75,-48,14,-149,129,175.56,84.75,96.81,0.69,0.01,-0.72,-0.04,11,0,3,3,3
2680,1038,82,-74,976,71,-52,-7,-101,107,175.75,84.75,96.63,0.69,0.01,-0.73,-0.04,11,0,3,3,3
2710,1002,68,-49,976,69,-53,-21,38,66,175.94,84.88,96.50,0.69,0.01,-0.73,-0.04,11,0,3,3,3
2739,995,37,-21,976,67,-51,-14,23,51,176.06,85.00,96.38,0.69,0.01,-0.73,-0.04,11,0,3,3,3
2767,984,39,-17,977,66,-50,24,77,8,176.06,85.06,96.31,0.69,0.01,-0.72,-0.04,11,0,3,3,3
2794,921,43,-1,977,66,-48,60,76,0,176.06,85.19,96.25,0.69,0.01,-0.72,-0.04,11,0,3,3,3
2823,931,68,-24,977,66,-47,98,5,-4,176.06,85.19,96.13,0.69,0.01,-0.72,-0.04,11,0,3,3,3
2849,954,51,-33,977,66,-47,49,-23,9,176.06,85.19,96.00,0.69,0.01,-0.72,-0.04,11,0,3,3,3
2880,923,56,-25,977,66,-46,88,49,-14,176.13,85.25,95.88,0.69,0.01,-0.72,-0.04,11,0,3,3,3
2907,905,79,-34,977,66,-46,100,-7,-7,176.13,85.25,95.69,0.69,0.01,-0.72,-0.03,11,0,3,3,3
2934,949,80,-51,977,65,-47,68,-48,11,176.13,85.25,95.56,0.69,0.01,-0.72,-0.03,11,0,3,3,3
2961,979,67,-56,977,65,-48,45,-20,1,176.13,85.19,95.44,0.69,0.01,-0.72,-0.03,11,0,3,3,3
2992,965,58,-32,977,65,-48,43,7,-3,176.13,85.19,95.38,0.69,0.01,-0.72,-0.03,11,0,3,3,3
3020,931,89,-33,977,65,-47,72,32,-15,176.13,85.25,95.25,0.69,0.02,-0.72,-0.03,11,0,3,3,3
3050,968,71,-48,977,66,-48,33,-45,-38,176.06,85.13,95.25,0.69,0.02,-0.72,-0.03,11,0,3,3,3
3078,971,67,-48,977,67,-48,24,1,-21,176.00,85.06,95.25,0.69,0.02,-0.72,-0.03,11,0,3,3,3
3104,938,79,-35,977,68,-48,54,29,-20,176.00,85.06,95.19,0.69,0.02,-0.72,-0.03,11,0,3,3,3
3133,908,98,-36,977,68,-47,56,28,-5,175.94,85.13,95.13,0.69,0.02,-0.72,-0.03,11,0,3,3,3
3161,984,60,-46,977,68,-48,-9,-78,11,175.94,85.06,95.13,0.69,0.02,-0.72,-0.03,11,0,3,3,3
3191,970,51,-26,977,68,-49,25,8,14,176.00,85.06,95.06,0.69,0.02,-0.72,-0.03,11,0,3,3,3
3219,948,90,-43,977,67,-49,54,10,5,176.00,85.06,94.94,0.69,0.02,-0.72,-0.03,11,0,3,3,3
3247,959,79,-52,977,67,-49,1,-16,-21,176.00,85.00,94.94,0.69,0.02,-0.72,-0.03,11,0,3,3,3
3275,973,61,-44,977,68,-49,16,22,-2,176.00,85.00,94.94,0.69,0.02,-0.72,-0.03,11,0,3,3,3
3302,927,79,-40,977,67,-47,15,46,23,176.00,85.13,94.88,0.69,0.02,-0.72,-0.03,11,0,3,3,3
3331,928,80,-35,977,67,-47,13,-23,10,176.00,85.13,94.81,0.69,0.02,-0.72,-0.03,11,0,3,3,3
3360,976,54,-28,977,66,-48,10,-12,20,176.06,85.13,94.81,0.69,0.02,-0.72,-0.03,12,0,3,3,3
3388,972,62,-41,977,66,-48,32,29,9,176.06,85.19,94.75,0.69,0.02,-0.72,-0.03,12,0,3,3,3
3416,943,63,-32,977,66,-47,39,19,-3,176.06,85.19,94.69,0.69,0.02,-0.72,-0.03,12,0,3,3,3
3444,944,76,-37,977,66,-47,23,-5,-17,176.06,85.19,94.63,0.69,0.02,-0.72,-0.03,12,0,3,3,3
3471,929,73,-40,977,67,-46,50,32,-11,176.06,85.19,94.63,0.69,0.02,-0.72,-0.03,12,0,3,3,3
3499,932,82,-53,977,67,-46,42,-6,6,176.06,85.19,94.50,0.69,0.02,-0.72,-0.03,12,0,3,3,3
3529,963,51,-43,977,66,-47,25,-24,15,176.06,85.19,94.44,0.69,0.02,-0.72,-0.03,12,0,3,3,3
3556,941,76,-35,977,66,-47,42,18,-9,176.06,85.19,94.38,0.69,0.02,-0.72,-0.03,12,0,3,3,3
3585,945,72,-33,977,67,-48,18,-49,8,176.06,85.13,94.38,0.69,0.02,-0.72,-0.03,12,0,3,3,3
3611,966,72,-30,977,67,-48,32,-13,-3,176.00,85.13,94.31,0.69,0.02,-0.72,-0.03,12,0,3,3,3
3639,978,82,-30,977,67,-49,53,6,-57,176.00,85.06,94.31,0.69,0.02,-0.72,-0.03,12,0,3,3,3
3665,972,81,-43,977,69,-48,52,11,-42,175.94,85.06,94.31,0.69,0.02,-0.72,-0.03,12,0,3,3,3
3697,960,69,-36,976,70,-48,21,13,-12,175.88,85.00,94.31,0.69,0.02,-0.72,-0.03,12,0,3,3,3
3725,919,82,-27,976,70,-46,43,44,-18,175.81,85.00,94.25,0.69,0.03,-0.72,-0.03,12,0,3,3,3
3751,913,83,-22,976,71,-46,40,-9,-34,175.81,85.00,94.25,0.69,0.03,-0.72,-0.03,12,0,3,3,3
3780,952,84,-45,976,72,-46,16,-18,-42,175.75,84.94,94.25,0.69,0.03,-0.72,-0.03,12,0,3,3,3
3807,950,82,-38,976,73,-46,18,4,-29,175.69,84.88,94.25,0.69,0.03,-0.72,-0.03,12,0,3,3,3
3838,956,77,-35,976,74,-46,16,-11,-28,175.63,84.81,94.31,0.69,0.03,-0.72,-0.03,12,0,3,3,3
3865,956,75,-46,976,74,-46,17,12,-15,175.56,84.81,94.31,0.69,0.03,-0.72,-0.03,12,0,3,3,3
3893,952,93,-28,976,76,-45,4,23,-23,175.50,84.75,94.38,0.69,0.03,-0.72,-0.03,12,0,3,3,3
3920,937,77,-28,976,76,-45,10,-18,-39,175.50,84.75,94.38,0.69,0.03,-0.72,-0.03,12,0,3,3,3
3949,977,79,-45,976,77,-46,1,-22,-30,175.44,84.69,94.44,0.69,0.03,-0.72,-0.03,12,0,3,3,3
3977,943,77,-40,976,78,-45,5,52,-17,175.38,84.69,94.50,0.69,0.03,-0.72,-0.03,12,0,3,3,3
4018,942,72,-15,976,78,-43,0,4,-3,175.38,84.69,94.44,0.69,0.03,-0.72,-0.03,12,0,3,3,3
4049,981,46,-26,976,78,-43,25,-21,-22,175.38,84.69,94.44,0.69,0.03,-0.72,-0.03,12,0,3,3,3
4081,992,65,-46,976,80,-44,54,-10,-64,175.25,84.63,94.44,0.69,0.03,-0.72,-0.03,12,0,3,3,3
4110,933,79,-35,976,81,-43,52,65,-55,175.13,84.56,94.44,0.69,0.03,-0.72,-0.03,12,0,3,3,3
4142,867,111,-22,976,83,-41,53,51,-25,175.13,84.56,94.38,0.69,0.03,-0.72,-0.03,12,0,3,3,3
4170,967,91,-39,976,83,-42,21,-71,-23,175.06,84.44,94.38,0.69,0.03,-0.72,-0.03,12,0,3,3,3
4205,1014,84,-58,976,84,-44,29,25,-9,175.06,84.38,94.38,0.69,0.03,-0.72,-0.03,12,0,3,3,3
4235,935,105,-32,976,84,-42,44,90,-13,175.06,84.44,94.31,0.69,0.03,-0.72,-0.03,12,0,3,3,3
4263,934,113,-36,976,85,-41,29,-21,-50,175.00,84.44,94.31,0.69,0.04,-0.72,-0.03,12,0,3,3,3
4294,974,96,-51,975,86,-41,14,-16,-46,174.88,84.31,94.38,0.69,0.04,-0.72,-0.03,12,0,3,3,3
4323,927,118,-38,975,87,-40,27,98,-20,174.88,84.38,94.38,0.69,0.04,-0.72,-0.03,12,0,3,3,3
4357,895,109,-18,975,87,-39,-4,-42,-19,174.81,84.31,94.38,0.69,0.04,-0.72,-0.03,12,0,3,3,3
4386,964,82,-41,975,88,-41,-4,-40,-13,174.81,84.25,94.44,0.69,0.04,-0.72,-0.03,12,0,3,3,3
4416,959,94,-42,975,87,-40,9,44,23,174.81,84.31,94.38,0.69,0.04,-0.72,-0.03,12,0,3,3,3
4446,934,104,-21,975,87,-39,-15,-38,23,174.88,84.31,94.38,0.69,0.04,-0.72,-0.03,12,0,3,3,3
4474,983,79,-30,975,87,-41,-2,-25,-14,174.88,84.31,94.38,0.69,0.04,-0.72,-0.03,12,0,3,3,3
4505,972,90,-41,975,88,-39,21,81,-28,174.81,84.31,94.44,0.69,0.04,-0.72,-0.03,12,0,3,3,3
4538,923,101,-21,975,88,-38,6,23,-15,174.75,84.31,94.44,0.69,0.04,-0.72,-0.03,12,0,3,3,3
4567,935,100,-31,975,88,-38,6,-16,-5,174.75,84.31,94.44,0.69,0.04,-0.72,-0.03,12,0,3,3,3
4596,944,101,-31,975,89,-38,-1,10,-1,174.75,84.25,94.44,0.69,0.04,-0.72,-0.03,12,0,3,3,3
4626,1019,35,21,975,90,-35,128,170,-21,174.69,84.31,94.38,0.69,0.04,-0.72,-0.03,12,0,3,3,3
4657,857,169,-21,975,89,-34,-40,-89,12,174.69,84.31,94.25,0.69,0.04,-0.72,-0.03,12,0,3,3,3
4686,1022,63,-13,975,90,-37,7,-43,-34,174.69,84.25,94.38,0.69,0.04,-0.72,-0.03,12,0,3,3,3
4718,985,74,-6,975,90,-35,46,98,-7,174.69,84.31,94.25,0.69,0.04,-0.72,-0.03,12,0,3,3,3
4748,953,174,11,975,90,-33,27,26,17,174.69,84.31,94.13,0.69,0.04,-0.72,-0.03,12,0,3,3,3
4776,972,85,-14,975,91,-34,26,-36,-37,174.63,84.25,94.19,0.69,0.04,-0.72,-0.03,12,0,3,3,3
4807,984,113,-23,975,91,-34,4,18,-6,174.63,84.25,94.13,0.69,0.04,-0.72,-0.03,12,0,3,3,3
4837,938,83,-21,975,91,-33,26,45,-16,174.63,84.25,94.13,0.69,0.04,-0.72,-0.03,12,0,3,3,3
4870,915,84,-4,975,92,-33,114,7,-67,174.56,84.19,94.06,0.69,0.04,-0.72,-0.02,12,0,3,3,3
4899,913,73,-5,975,93,-34,182,-78,-52,174.50,84.13,93.81,0.69,0.04,-0.72,-0.02,12,0,3,3,3
4928,935,122,-56,975,95,-38,195,-90,-44,174.38,83.94,93.56,0.69,0.05,-0.72,-0.02,12,0,3,3,3
4958,924,81,-34,975,95,-41,250,-54,9,174.38,83.88,93.19,0.69,0.05,-0.72,-0.02,12,0,3,3,3
4988,924,107,-38,975,94,-41,381,45,80,174.50,83.94,92.44,0.69,0.05,-0.72,-0.02,12,0,3,3,3
5017,982,153,32,975,87,-39,614,262,243,175.00,84.56,90.81,0.69,0.06,-0.72,-0.01,12,0,3,3,3
5051,952,35,-2,977,76,-34,408,64,225,175.50,85.06,89.50,0.69,0.06,-0.72,0.00,12,0,3,3,3
5080,984,49,-19,977,70,-34,522,65,183,175.88,85.38,88.31,0.69,0.06,-0.72,0.01,12,0,3,3,3
5109,981,89,-56,977,64,-34,469,-35,141,176.19,85.69,87.06,0.69,0.07,-0.72,0.02,12,0,3,3,3
5139,984,61,-112,978,61,-35,420,49,120,176.44,85.88,86.00,0.69,0.07,-0.72,0.02,12,0,3,3,3
5169,969,66,-39,978,58,-33,480,199,76,176.63,86.13,84.94,0.70,0.07,-0.71,0.03,12,0,3,3,3
5198,940,53,-46,978,55,-28,505,149,71,176.75,86.38,83.88,0.70,0.08,-0.71,0.04,12,0,3,3,3
5231,1008,56,7,978,52,-24,515,180,99,176.88,86.56,82.81,0.70,0.08,-0.71,0.04,12,0,3,3,3
5261,922,9,-7,979,46,-17,685,239,212,177.25,87.06,81.31,0.70,0.09,-0.71,0.05,12,0,3,3,3
5291,905,121,-11,979,44,-14,716,163,8,177.38,87.31,79.81,0.70,0.09,-0.71,0.06,12,0,3,3,3
5319,888,106,-23,979,43,-11,531,14,19,177.44,87.38,78.69,0.70,0.10,-0.70,0.07,12,0,3,3,3
5350,928,102,-9,979,41,-12,467,-67,74,177.56,87.44,77.69,0.70,0.11,-0.70,0.07,12,0,3,3,3
5382,944,83,-31,979,38,-17,354,-89,48,177.69,87.50,76.94,0.70,0.11,-0.71,0.08,12,0,3,3,3
5411,947,33,33,979,36,-19,340,-43,68,177.81,87.56,76.19,0.70,0.11,-0.71,0.08,12,0,3,3,3
5441,968,54,-30,979,35,-21,413,-91,8,177.88,87.50,75.44,0.69,0.12,-0.71,0.09,12,0,3,3,3
5470,993,31,-24,979,34,-24,479,-2,44,177.94,87.50,74.56,0.69,0.12,-0.71,0.09,12,0,3,3,3
5500,995,80,-56,979,32,-23,505,48,79,178.13,87.69,73.50,0.69,0.13,-0.70,0.10,12,0,3,3,3
5529,949,94,-67,979,29,-21,290,100,67,178.25,87.88,72.69,0.69,0.13,-0.70,0.10,12,0,3,3,3
5563,924,60,-45,980,26,-19,237,29,65,178.38,88.00,72.13,0.69,0.13,-0.70,0.11,12,0,3,3,3
5593,943,80,-49,980,26,-18,179,53,38,178.38,88.06,71.75,0.69,0.13,-0.70,0.11,12,0,3,3,3
5622,927,90,-39,980,23,-17,1,40,140,178.56,88.25,71.44,0.69,0.13,-0.70,0.11,12,0,3,3,3
5652,904,33,0,980,20,-17,-43,-54,170,178.88,88.38,71.25,0.69,0.13,-0.70,0.11,12,0,3,3,3
5681,943,9,-14,980,16,-23,36,-291,13,179.00,88.13,71.06,0.69,0.13,-0.70,0.11,12,0,3,3,3
5712,1002,-19,-26,979,28,-44,524,-573,-384,178.31,86.88,71.06,0.68,0.14,-0.71,0.11,12,0,3,3,3
5746,1007,98,-100,978,32,-51,239,-77,-79,178.06,86.38,70.69,0.68,0.14,-0.71,0.12,12,0,3,3,3
5775,933,63,-65,978,33,-51,98,34,-1,178.00,86.38,70.50,0.68,0.15,-0.71,0.12,12,0,3,3,3
5805,952,72,-36,978,33,-51,21,-42,-27,178.00,86.38,70.44,0.68,0.15,-0.71,0.12,12,0,3,3,3
5833,974,64,-56,978,32,-53,-26,-53,41,178.06,86.31,70.44,0.68,0.15,-0.71,0.12,12,0,3,3,3
5864,936,24,-93,978,28,-54,-103,-68,129,178.31,86.38,70.38,0.68,0.14,-0.71,0.12,12,0,3,3,3
5897,972,41,-78,978,26,-57,-27,-56,113,178.38,86.25,70.31,0.68,0.14,-0.71,0.12,12,0,3,3,3
5925,953,48,-68,978,25,-57,-7,-10,41,178.50,86.31,70.25,0.68,0.14,-0.71,0.12,12,0,3,3,3
5954,938,33,-65,978,22,-58,7,-44,63,178.63,86.25,70.13,0.68,0.14,-0.71,0.12,12,0,3,3,3
5984,953,52,-82,978,22,-60,18,-6,27,178.63,86.19,70.13,0.67,0.14,-0.71,0.12,12,0,3,3,3
6013,928,56,-89,978,23,-60,36,5,-5,178.56,86.13,70.06,0.67,0.14,-0.71,0.12,12,0,3,3,3
6043,960,55,-104,978,24,-63,-13,-55,9,178.50,85.88,70.19,0.67,0.14,-0.72,0.12,12,0,3,3,3
6075,957,28,-77,978,24,-66,10,-14,39,178.56,85.81,70.19,0.67,0.14,-0.72,0.12,12,0,3,3,3
6106,967,53,-76,978,23,-65,56,56,66,178.63,85.88,70.00,0.67,0.14,-0.72,0.12,12,0,3,3,3
6134,948,120,-74,978,17,-65,-62,-24,189,178.94,86.00,69.75,0.67,0.14,-0.72,0.12,12,0,3,3,3
6165,901,-38,-88,978,11,-67,-316,-137,227,179.31,85.94,69.88,0.67,0.14,-0.72,0.12,12,0,3,3,3
6195,975,-29,-45,978,10,-69,158,36,-101,179.31,85.88,69.81,0.67,0.14,-0.72,0.12,12,0,3,3,3
6224,929,265,-134,978,12,-68,47,61,-39,179.19,85.94,69.69,0.67,0.14,-0.72,0.12,12,0,3,3,3
6258,899,-52,-24,978,9,-60,107,404,-13,179.38,86.38,69.63,0.67,0.14,-0.72,0.12,12,0,3,3,3
6287,863,190,-30,979,13,-52,173,97,-59,179.19,86.81,69.44,0.68,0.14,-0.71,0.12,12,0,3,3,3
6317,1017,31,-110,979,5,-53,-61,9,378,179.63,86.88,69.00,0.68,0.14,-0.71,0.13,12,0,3,3,3
6346,948,-17,-68,979,3,-50,519,195,255,179.94,87.13,68.19,0.68,0.14,-0.71,0.13,12,0,3,3,3
6375,1070,59,-34,979,-5,-48,178,29,-110,-179.63,87.06,67.31,0.68,0.14,-0.71,0.14,12,0,3,3,3
6409,915,-8,-56,979,-1,-49,68,-170,-100,-179.88,87.06,67.38,0.68,0.14,-0.71,0.14,13,0,3,3,3
6437,1065,33,-62,978,3,-57,246,-225,-149,179.75,86.63,67.31,0.67,0.15,-0.71,0.13,13,0,3,3,3
6467,821,-96,21,979,6,-56,156,172,-37,179.63,86.63,67.13,0.67,0.15,-0.71,0.14,13,0,3,3,3
6497,937,94,-72,978,5,-57,6,-156,3,179.69,86.50,66.81,0.67,0.15,-0.71,0.14,13,0,3,3,3
6526,935,-200,-119,978,4,-63,605,-278,494,-179.94,86.13,66.00,0.67,0.15,-0.71,0.14,13,0,3,3,3
6557,911,16,-57,978,-11,-70,639,-251,406,-179.06,85.56,64.00,0.66,0.15,-0.72,0.15,13,0,3,3,3
6589,1061,24,-42,976,-28,-84,507,-377,375,-178.25,84.75,62.19,0.66,0.16,-0.72,0.16,13,0,3,3,3
6619,1032,25,-90,976,-33,-82,398,270,4,-178.00,84.75,61.13,0.66,0.16,-0.72,0.17,13,0,3,3,3
6648,903,46,-101,977,-27,-76,42,93,-302,-178.38,85.19,61.19,0.66,0.16,-0.72,0.17,13,0,3,3,3
6678,1034,-77,-101,978,-12,-70,238,256,-532,-179.19,85.75,61.75,0.66,0.17,-0.71,0.17,13,0,3,3,3
6708,1038,-4,-48,978,-5,-64,160,189,-172,-179.75,86.31,61.88,0.66,0.17,-0.71,0.17,13,0,3,3,3
6740,910,33,-86,978,0,-64,-116,-193,-184,-179.94,86.19,62.19,0.66,0.18,-0.71,0.16,13,0,3,3,3
6769,971,-18,-72,977,13,-73,-7,-261,-476,179.19,85.63,63.13,0.66,0.18,-0.71,0.16,13,0,3,3,3
6799,904,-30,-63,977,18,-75,231,-176,-82,178.88,85.31,63.19,0.66,0.18,-0.71,0.16,13,0,3,3,3
6829,889,151,-143,976,23,-86,-50,-298,-276,178.63,84.75,63.31,0.66,0.19,-0.71,0.16,13,0,3,3,3
6858,912,102,-154,975,31,-91,-114,-280,-405,177.88,84.13,64.25,0.66,0.19,-0.71,0.15,13,0,3,3,3
6888,986,21,-75,974,44,-95,141,44,-189,177.25,83.75,64.63,0.66,0.20,-0.71,0.15,13,0,3,3,3
6922,923,152,-122,975,46,-93,56,85,26,177.25,83.88,64.44,0.66,0.20,-0.71,0.15,13,0,3,3,3
6951,961,81,-77,975,43,-90,-78,73,144,177.44,84.06,64.31,0.66,0.20,-0.71,0.15,13,0,3,3,3
6980,912,100,-88,975,37,-92,27,105,-30,177.75,84.13,63.88,0.66,0.19,-0.71,0.15,13,0,3,3,3
7010,914,46,-86,975,37,-90,84,-98,135,177.88,84.25,63.63,0.66,0.19,-0.71,0.15,13,0,3,3,3
7040,1004,87,-168,975,32,-96,-6,-309,60,178.13,83.81,63.25,0.65,0.19,-0.72,0.15,13,0,3,3,3
7073,932,42,-107,973,39,-108,-17,-298,-306,177.69,83.25,63.75,0.65,0.20,-0.72,0.15,13,0,3,3,3
7103,939,113,-119,972,48,-118,-17,-388,-247,157.81,82.44,64.31,0.65,0.20,-0.72,0.15,13,0,3,3,3
7133,987,65,-142,971,50,-125,-28,-67,40,158.00,82.06,64.56,0.64,0.20,-0.72,0.15,13,0,3,3,3
7162,971,50,-203,971,44,-125,62,-11,241,160.50,82.19,64.13,0.64,0.20,-0.72,0.15,13,0,3,3,3
7191,871,79,-173,971,45,-126,8,-101,-51,160.31,82.06,64.06,0.64,0.20,-0.72,0.15,13,0,3,3,3
7221,929,32,-164,970,49,-132,-97,-102,-88,159.38,81.69,64.56,0.64,0.20,-0.73,0.14,13,0,3,3,3
7255,1000,69,-177,970,46,-131,33,67,191,160.50,81.81,64.31,0.64,0.20,-0.73,0.15,13,0,3,3,3
7283,950,30,-137,971,42,-127,-36,135,84,161.69,82.06,64.06,0.64,0.20,-0.72,0.15,13,0,3,3,3
7313,968,18,-112,972,39,-121,89,280,90,161.88,82.50,63.88,0.64,0.20,-0.72,0.15,13,0,3,3,3
7343,986,47,-122,974,30,-106,133,576,274,178.19,83.50,63.00,0.65,0.20,-0.72,0.16,13,0,3,3,3
7372,982,-8,-99,976,22,-90,60,468,230,178.69,84.56,62.38,0.65,0.19,-0.71,0.16,13,0,3,3,3
7402,918,-47,-97,977,16,-82,230,241,390,179.25,85.25,61.44,0.66,0.19,-0.71,0.17,13,0,3,3,3
7434,982,127,-132,977,-3,-74,206,169,467,-179.75,85.63,60.13,0.66,0.19,-0.71,0.17,13,0,3,3,3
7463,922,54,-123,978,-12,-66,-60,276,85,-179.25,86.00,59.63,0.66,0.18,-0.71,0.18,13,0,3,3,3
7493,935,-22,-96,978,-16,-59,-51,207,165,-179.00,86.31,59.44,0.66,0.18,-0.71,0.18,13,0,3,3,3
7523,867,-11,-66,978,-21,-53,-10,142,153,-178.75,86.63,59.25,0.66,0.18,-0.70,0.18,13,0,3,3,3
7553,969,-3,-69,978,-22,-52,-4,-4,-202,-178.75,86.63,59.31,0.66,0.18,-0.70,0.18,13,0,3,3,3
7585,1019,7,-97,979,-9,-53,43,-16,-348,-179.38,86.81,59.88,0.66,0.18,-0.70,0.18,13,0,3,3,3
7615,899,156,-170,979,4,-50,185,129,-503,179.75,87.00,60.44,0.67,0.19,-0.70,0.18,13,0,3,3,3
7645,864,79,-113,979,26,-38,-145,434,-745,178.38,87.25,61.88,0.67,0.19,-0.69,0.17,13,0,3,3,3
7674,1003,60,-86,979,37,-29,-105,233,-59,177.75,87.19,62.75,0.68,0.20,-0.69,0.16,13,0,3,3,3
7704,991,52,-49,979,37,-23,103,265,-53,177.75,87.44,62.69,0.68,0.20,-0.69,0.16,13,0,3,3,3
7734,867,78,-8,979,46,-11,27,314,-329,177.25,87.19,63.06,0.68,0.20,-0.68,0.16,13,0,3,3,3
7767,1076,42,-14,979,47,-5,185,100,50,177.19,87.19,62.81,0.69,0.20,-0.68,0.17,13,0,3,3,3
7796,884,152,-23,979,54,-5,-94,-43,-432,176.81,86.81,63.25,0.69,0.20,-0.68,0.16,13,0,3,3,3
7825,932,168,-38,978,69,-4,-34,95,-363,175.94,85.94,64.25,0.69,0.21,-0.68,0.16,13,0,3,3,3
7855,1036,90,-122,977,75,-1,-122,-131,-244,175.44,85.44,64.81,0.69,0.21,-0.68,0.15,13,0,3,3,3
7884,972,-111,-3,977,78,-15,-120,-457,452,175.38,85.31,65.38,0.69,0.21,-0.68,0.15,13,0,3,3,3
7917,939,83,99,978,55,-17,198,-87,796,176.75,86.56,63.69,0.68,0.20,-0.68,0.16,13,0,3,3,3
7946,1177,67,116,978,58,-22,292,-35,-532,176.56,86.31,63.38,0.68,0.21,-0.69,0.16,13,0,3,3,3
7976,845,155,-66,977,74,-16,-3,167,-743,175.63,85.50,64.19,0.68,0.21,-0.68,0.16,13,0,3,3,3
8005,969,142,-19,975,101,-15,-294,-78,-1440,97.81,83.06,67.00,0.69,0.22,-0.68,0.14,13,0,3,3,3
8035,971,90,-12,971,134,-15,-148,3,-791,96.13,81.56,68.88,0.69,0.23,-0.67,0.13,13,0,3,3,3
8066,1017,95,-19,966,164,-13,-271,62,-1057,94.31,80.06,70.75,0.69,0.24,-0.67,0.12,13,0,3,3,3
8097,810,203,-10,965,173,-13,13,-86,-336,94.56,79.75,71.06,0.69,0.24,-0.67,0.12,13,0,3,3,3
8127,1041,196,-15,963,182,-15,-29,-12,-219,94.81,79.19,71.69,0.69,0.24,-0.67,0.11,13,0,3,3,3
8157,950,124,-3,962,186,-14,118,112,-134,94.00,78.94,71.88,0.69,0.24,-0.67,0.11,13,0,3,3,3
8185,818,293,-25,962,188,-12,-65,47,3,93.44,78.88,71.81,0.69,0.25,-0.67,0.11,13,0,3,3,3
8216,880,188,-29,962,189,-10,-175,-17,-66,93.25,78.75,72.19,0.69,0.24,-0.67,0.11,13,0,3,3,3
8248,895,119,-2,963,183,-10,27,-18,398,93.31,79.19,71.88,0.69,0.24,-0.67,0.11,13,0,3,3,3
8278,1049,132,-56,964,175,-11,-57,5,-26,93.81,79.63,71.44,0.69,0.24,-0.67,0.11,13,0,3,3,3
8307,848,221,-33,964,178,-12,-97,-109,-178,94.19,79.31,71.94,0.69,0.24,-0.67,0.11,13,0,3,3,3
8337,1070,101,-59,962,188,-17,-129,-157,-288,95.25,78.81,72.69,0.69,0.24,-0.67,0.11,13,0,3,3,3
8368,968,271,-16,961,192,-18,-55,0,-144,95.44,78.50,73.06,0.69,0.24,-0.67,0.10,13,0,3,3,3
8397,778,230,-41,959,200,-19,-40,-86,-273,95.56,78.13,73.63,0.69,0.24,-0.67,0.10,13,0,3,3,3
8430,1019,159,-56,957,210,-23,31,-139,-228,96.38,77.50,74.19,0.69,0.25,-0.67,0.10,13,0,3,3,3
8461,985,256,-43,957,210,-27,54,-95,66,97.50,77.44,74.13,0.69,0.25,-0.67,0.10,13,0,3,3,3
8489,900,233,-6,957,209,-29,-2,-65,24,98.06,77.50,74.13,0.69,0.25,-0.67,0.10,13,0,3,3,3
8519,923,237,-92,957,209,-32,1,-93,43,98.75,77.50,74.13,0.69,0.25,-0.67,0.10,13,0,3,3,3
8549,957,275,-26,958,204,-34,-41,-79,201,99.69,77.75,73.94,0.69,0.25,-0.68,0.10,13,0,3,3,3
8582,849,200,-130,958,202,-36,-78,-33,-23,100.06,77.88,74.00,0.69,0.25,-0.68,0.10,13,0,3,3,3
8612,851,168,-144,958,202,-37,7,-59,7,100.50,77.81,74.00,0.69,0.25,-0.68,0.10,13,0,3,3,3
8642,966,219,-86,959,197,-38,-16,-14,228,101.06,78.13,73.75,0.69,0.24,-0.68,0.10,13,0,3,3,3
8673,972,163,-56,960,193,-37,-25,83,87,100.81,78.44,73.50,0.69,0.24,-0.68,0.10,13,0,3,3,3
8702,870,162,-21,961,191,-34,33,99,11,100.19,78.50,73.31,0.69,0.24,-0.68,0.10,13,0,3,3,3
8731,990,227,-48,961,188,-29,18,208,216,99.00,78.75,73.00,0.69,0.24,-0.68,0.10,13,0,3,3,3
8764,924,229,68,964,176,-23,-17,135,502,97.69,79.50,72.25,0.69,0.24,-0.68,0.11,13,0,3,3,3
8793,845,126,-42,965,172,-22,-17,45,18,97.31,79.75,72.06,0.69,0.23,-0.68,0.11,13,0,3,3,3
8822,894,175,1,965,173,-21,-2,35,-75,96.88,79.69,72.13,0.69,0.23,-0.68,0.11,13,0,3,3,3
8852,843,218,-10,964,177,-21,72,-51,-151,96.94,79.44,72.31,0.69,0.24,-0.67,0.11,13,0,3,3,3
8881,876,177,-27,963,180,-24,66,-104,-47,97.81,79.25,72.44,0.69,0.24,-0.68,0.11,13,0,3,3,3
8911,941,179,-56,962,184,-28,44,-91,-114,98.63,79.00,72.50,0.69,0.24,-0.68,0.11,13,0,3,3,3
8943,919,231,-44,963,181,-32,20,-159,122,100.06,79.13,72.38,0.69,0.24,-0.68,0.11,13,0,3,3,3
8973,1004,152,-23,963,178,-36,16,-114,102,101.63,79.25,72.19,0.69,0.24,-0.68,0.11,13,0,3,3,3
9003,1038,156,-124,963,177,-39,157,-59,-91,102.44,79.31,72.06,0.68,0.24,-0.68,0.11,13,0,3,3,3
9032,1051,358,-22,963,178,-40,84,4,32,102.75,79.19,71.88,0.68,0.24,-0.68,0.11,13,0,3,3,3
9062,927,199,-54,963,178,-39,81,79,1,102.44,79.25,71.69,0.68,0.24,-0.68,0.11,13,0,3,3,3
9094,859,240,-80,963,179,-36,61,92,-52,101.50,79.19,71.63,0.68,0.24,-0.68,0.11,13,0,3,3,3
9124,1084,257,-33,963,178,-34,6,109,42,100.94,79.31,71.44,0.69,0.24,-0.68,0.11,13,0,3,3,3
9154,876,226,-186,963,179,-29,-10,171,-110,99.44,79.31,71.44,0.69,0.24,-0.68,0.11,13,0,3,3,3
9183,939,192,-21,961,190,-26,-1,72,-459,97.88,78.69,72.06,0.69,0.25,-0.67,0.11,13,0,3,3,3
9213,936,269,-5,959,199,-24,-16,49,-277,96.94,78.13,72.69,0.69,0.25,-0.67,0.11,13,0,3,3,3
9242,950,236,-65,958,207,-21,-47,115,-319,95.94,77.69,73.19,0.69,0.25,-0.67,0.10,13,0,3,3,3
9275,882,174,-69,955,219,-18,-148,43,-346,94.75,77.00,74.06,0.69,0.25,-0.67,0.10,13,0,3,3,3
9305,883,223,-88,953,229,-15,-86,38,-201,93.94,76.44,74.75,0.70,0.26,-0.66,0.09,13,0,3,3,3
9333,1034,337,-68,953,230,-14,-55,28,73,93.69,76.38,74.94,0.70,0.26,-0.66,0.09,13,0,3,3,3
9363,729,316,-182,952,231,-13,-109,-43,-183,93.44,76.19,75.25,0.70,0.26,-0.66,0.09,13,0,3,3,3
9393,911,235,-20,950,239,-16,-96,-136,-157,94.00,75.75,75.88,0.70,0.26,-0.66,0.09,13,0,3,3,3
9425,1023,264,-132,950,239,-20,-6,-121,119,94.88,75.75,75.94,0.69,0.26,-0.67,0.09,13,0,3,3,3
9455,844,223,128,950,242,-22,-66,-69,-85,95.31,75.63,76.25,0.69,0.26,-0.67,0.08,13,0,3,3,3
9484,1070,189,44,951,236,-24,84,-30,120,95.81,75.94,75.88,0.69,0.26,-0.67,0.09,13,0,3,3,3
9513,1108,212,38,952,233,-23,108,170,316,95.31,76.31,75.31,0.69,0.26,-0.67,0.09,13,0,3,3,3
9543,871,295,93,956,216,-16,122,300,683,93.69,77.56,73.69,0.70,0.25,-0.67,0.10,13,0,3,3,3
9573,901,255,169,959,204,-9,97,192,304,92.31,78.13,72.94,0.70,0.25,-0.67,0.10,13,0,3,3,3
9606,848,138,55,961,192,-4,95,148,257,91.44,78.63,72.31,0.70,0.24,-0.67,0.11,13,0,3,3,3
9634,843,321,-47,962,186,0,110,175,185,90.00,79.00,71.63,0.70,0.24,-0.66,0.11,13,0,3,3,3
9665,890,151,-1,963,181,0,-54,-41,300,89.88,79.50,71.19,0.70,0.24,-0.66,0.12,13,0,3,3,3
9694,740,176,161,964,174,0,52,-94,37,90.31,79.75,70.94,0.70,0.24,-0.67,0.12,13,0,3,3,3
9724,1001,260,-102,964,175,-4,44,-208,-82,92.38,79.63,71.00,0.69,0.24,-0.67,0.12,13,0,3,3,3
9754,1095,221,39,964,176,-11,-16,-104,48,94.06,79.63,71.13,0.69,0.24,-0.67,0.12,13,0,3,3,3
9788,884,239,27,964,178,-13,-11,-8,-95,94.19,79.50,71.31,0.69,0.24,-0.67,0.11,13,0,3,3,3
9818,930,191,-22,963,181,-14,-36,-53,93,94.50,79.25,71.56,0.69,0.24,-0.67,0.11,13,0,3,3,3
9846,918,154,-13,963,180,-15,14,-51,36,95.00,79.31,71.56,0.69,0.24,-0.67,0.11,13,0,3,3,3
9876,872,222,-35,964,178,-17,-3,-79,66,95.75,79.44,71.38,0.69,0.24,-0.67,0.11,13,0,3,3,3
9905,859,136,-121,964,177,-21,5,-121,-8,96.81,79.50,71.44,0.69,0.24,-0.67,0.11,13,0,3,3,3
9938,960,195,-88,963,178,-24,23,-96,-29,97.88,79.38,71.50,0.69,0.24,-0.67,0.11,13,0,3,3,3
9969,979,210,-82,964,175,-27,11,-98,147,98.94,79.50,71.31,0.69,0.24,-0.68,0.11,13,0,3,3,3
9998,939,221,-66,962,183,-29,-58,-57,-470,99.00,79.00,71.88,0.69,0.24,-0.67,0.11,13,0,3,3,3
10028,1020,221,-242,960,196,-31,-16,-65,-298,99.00,78.25,72.75,0.69,0.25,-0.67,0.10,13,0,3,3,3
10056,861,191,-8,959,198,-32,37,-19,93,99.19,78.13,72.81,0.69,0.25,-0.67,0.10,13,0,3,3,3
10088,879,218,-235,960,193,-33,-23,-57,170,99.75,78.44,72.56,0.69,0.25,-0.68,0.11,13,0,3,3,3
10121,1008,182,-44,963,180,-34,16,15,425,100.69,79.13,71.81,0.69,0.24,-0.68,0.11,13,0,3,3,3
10149,858,221,-1,964,175,-32,12,72,68,100.38,79.44,71.44,0.69,0.24,-0.68,0.11,13,0,3,3,3
10179,875,136,-54,964,174,-31,-5,-10,67,100.25,79.56,71.38,0.69,0.24,-0.68,0.11,13,0,3,3,3
10209,973,147,16,965,168,-32,6,-4,214,101.00,79.88,71.06,0.69,0.24,-0.68,0.11,13,0,3,3,3
10238,927,206,-20,966,160,-31,34,42,291,101.19,80.38,70.50,0.69,0.24,-0.68,0.12,13,0,3,3,3
10271,930,200,-11,967,155,-31,19,-11,24,101.44,80.63,70.19,0.69,0.23,-0.68,0.12,13,0,3,3,3
10300,1039,160,-85,967,156,-32,22,-7,-43,101.69,80.63,70.13,0.68,0.23,-0.68,0.12,13,0,3,3,3
10330,919,254,-3,968,153,-31,37,49,179,101.50,80.81,69.88,0.69,0.23,-0.68,0.12,13,0,3,3,3
10359,908,124,-93,969,147,-29,-25,21,38,101.31,81.13,69.56,0.69,0.23,-0.68,0.12,13,0,3,3,3
10389,923,158,-11,969,146,-28,-18,11,22,101.19,81.19,69.50,0.69,0.23,-0.68,0.12,13,0,3,3,3
10419,953,142,-72,969,146,-28,65,36,1,100.94,81.25,69.44,0.69,0.23,-0.68,0.12,13,0,3,3,3
10450,907,201,-79,969,146,-27,52,26,-32,100.56,81.25,69.31,0.69,0.23,-0.68,0.13,13,0,3,3,3
10481,964,163,-52,969,146,-26,20,27,7,100.31,81.25,69.25,0.69,0.23,-0.68,0.13,13,0,3,3,3
10510,982,166,-40,970,137,-25,19,44,418,100.56,81.81,68.63,0.69,0.23,-0.68,0.13,13,0,3,3,3
10540,982,155,25,971,128,-23,-24,59,182,100.50,82.31,68.13,0.69,0.23,-0.68,0.13,13,0,3,3,3
10570,948,150,-11,971,129,-22,10,79,-188,99.25,82.19,68.31,0.69,0.23,-0.68,0.13,13,0,3,3,3
10602,1009,154,-19,970,140,-19,-5,27,-377,97.63,81.63,68.81,0.69,0.23,-0.68,0.13,13,0,3,3,3
10632,943,205,-74,969,146,-15,13,152,-6,96.00,81.31,69.06,0.69,0.23,-0.67,0.13,13,0,3,3,3
10660,991,171,-73,970,140,-9,60,238,173,93.69,81.69,68.63,0.69,0.23,-0.67,0.13,13,0,3,3,3
10690,915,173,-35,970,140,-4,-25,153,-48,91.94,81.75,68.56,0.69,0.23,-0.67,0.13,13,0,3,3,3
10720,950,165,-65,970,143,-2,-11,122,-195,90.25,81.44,68.94,0.69,0.23,-0.67,0.13,13,0,3,3,3
10749,895,188,-47,968,152,1,1,88,-425,89.19,80.81,69.50,0.70,0.23,-0.67,0.13,13,0,3,3,3
10783,831,259,-5,964,178,1,-121,-127,-880,89.50,79.44,70.94,0.70,0.24,-0.66,0.12,13,0,3,3,3
10813,880,203,-143,959,203,1,-104,32,-860,89.63,78.00,72.63,0.70,0.25,-0.66,0.11,13,0,3,3,3
10842,937,230,97,954,226,3,2,-89,-749,89.19,76.63,74.13,0.70,0.26,-0.66,0.10,13,0,3,3,3
10871,954,163,188,951,236,1,-55,-84,-11,89.63,76.06,74.88,0.70,0.26,-0.66,0.09,13,0,3,3,3
10901,850,301,-43,950,240,0,5,-22,-151,89.94,75.81,75.13,0.70,0.26,-0.66,0.09,13,0,3,3,3
10931,826,295,4,950,241,0,-51,-43,-156,90.13,75.63,75.38,0.70,0.26,-0.66,0.09,13,0,3,3,3
10963,950,187,-11,948,248,-2,-16,-50,-150,90.50,75.31,75.81,0.70,0.26,-0.66,0.09,13,0,3,3,3
10993,877,232,-28,947,254,-2,28,-2,-191,90.56,74.94,76.13,0.70,0.26,-0.66,0.09,13,0,3,3,3
11023,820,303,9,946,256,-3,-7,-67,32,90.94,74.81,76.25,0.70,0.27,-0.66,0.08,13,0,3,3,3
11052,872,272,-18,945,258,-6,11,-74,-76,91.44,74.69,76.38,0.70,0.27,-0.66,0.08,13,0,3,3,3
11082,842,252,16,946,256,-8,-12,-93,128,92.00,74.88,76.25,0.70,0.27,-0.66,0.08,13,0,3,3,3
11114,844,234,-24,947,252,-12,64,-107,18,92.81,75.06,76.00,0.70,0.27,-0.66,0.09,13,0,3,3,3
11144,777,293,-24,946,255,-18,75,-228,-180,94.19,74.81,76.13,0.70,0.27,-0.66,0.08,13,0,3,3,3
11173,954,289,-34,944,262,-26,67,-229,-276,95.75,74.38,76.56,0.69,0.27,-0.66,0.08,13,0,3,3,3
11203,1000,225,-62,943,263,-32,99,-133,180,96.94,74.25,76.63,0.69,0.27,-0.66,0.08,13,0,3,3,3
11233,1058,458,-109,945,258,-34,16,-23,423,97.69,74.81,76.00,0.69,0.27,-0.67,0.08,13,0,3,3,3
11262,1031,305,-91,947,251,-31,-147,215,-48,96.63,74.94,75.94,0.69,0.27,-0.67,0.08,13,0,3,3,3
11296,801,167,33,945,258,-25,-49,14,-143,95.63,74.56,76.56,0.69,0.27,-0.66,0.08,13,0,3,3,3
11326,1133,371,-61,944,263,-26,-4,20,-253,95.69,74.31,76.81,0.69,0.27,-0.66,0.08,13,0,3,3,3
11356,882,150,-8,943,266,-21,34,203,49,94.63,74.13,76.94,0.69,0.27,-0.66,0.08,13,0,3,3,3
11384,657,143,-11,944,262,-17,180,126,204,93.81,74.44,76.38,0.70,0.27,-0.66,0.08,13,0,3,3,3
11414,1191,454,-88,947,252,-17,135,69,377,94.00,75.00,75.50,0.70,0.27,-0.66,0.09,13,0,3,3,3
11447,467,164,-6,946,256,-8,-270,315,-342,91.94,74.81,75.81,0.70,0.27,-0.66,0.09,13,0,3,3,3
11478,887,129,0,946,255,-3,4,52,344,90.81,74.88,75.94,0.70,0.27,-0.66,0.09,13,0,3,3,3
11507,866,339,-10,947,251,-4,167,-41,302,91.06,75.13,75.44,0.70,0.27,-0.66,0.09,13,0,3,3,3
11537,1163,446,-26,949,246,-4,-20,81,68,91.13,75.44,75.00,0.70,0.27,-0.66,0.09,13,0,3,3,3
11567,891,315,-2,949,246,2,-158,248,42,89.38,75.44,75.13,0.70,0.26,-0.66,0.09,13,0,3,3,3
11596,938,279,-18,950,241,11,-186,236,188,87.31,75.69,75.06,0.71,0.26,-0.65,0.09,13,0,3,3,3
11629,965,237,77,951,236,19,-191,215,62,85.31,76.00,75.00,0.71,0.26,-0.65,0.09,13,0,3,3,3
11658,814,226,49,951,235,27,-337,205,-57,83.31,76.00,75.31,0.71,0.25,-0.65,0.09,13,0,3,3,3
11688,859,-86,56,949,242,34,-281,107,-271,81.88,75.50,76.31,0.71,0.25,-0.65,0.09,13,0,3,3,3
11718,860,229,28,949,244,37,34,60,35,81.31,75.38,76.50,0.72,0.25,-0.65,0.08,13,0,3,3,3
11748,917,257,-27,949,242,38,39,71,69,80.94,75.50,76.25,0.72,0.25,-0.65,0.09,13,0,3,3,3
11778,767,293,75,950,237,39,141,14,178,80.63,75.75,75.75,0.72,0.25,-0.65,0.09,13,0,3,3,3
11810,917,171,-309,949,240,36,138,-90,-109,81.44,75.63,75.75,0.71,0.25,-0.65,0.09,13,0,3,3,3
11842,916,339,95,952,230,32,236,-49,411,81.94,76.19,74.81,0.71,0.25,-0.65,0.10,13,0,3,3,3
11873,952,220,250,955,218,29,119,-53,660,82.25,76.94,73.81,0.71,0.25,-0.65,0.10,13,0,3,3,3
11902,910,63,-303,961,190,26,213,-70,1271,82.00,78.63,71.88,0.71,0.24,-0.66,0.12,13,0,3,3,3
11934,1115,238,90,974,110,23,334,-23,3000,6.44,83.38,66.56,0.70,0.22,-0.66,0.15,13,0,3,3,3
11967,948,114,-79,979,40,27,59,181,717,2.31,87.13,61.94,0.70,0.20,-0.67,0.17,13,0,3,3,3
11997,906,-54,-196,979,20,33,133,232,821,1.19,87.69,60.63,0.70,0.19,-0.67,0.18,13,0,3,3,3
12027,823,27,105,979,-7,38,278,164,1797,-1.50,87.19,57.44,0.69,0.18,-0.67,0.20,13,0,3,3,3
12056,947,52,-186,978,-53,42,72,104,387,-3.31,85.75,55.38,0.69,0.17,-0.67,0.21,13,0,3,3,3
12087,1014,-98,-56,977,-70,46,132,115,983,-4.69,84.50,53.81,0.69,0.16,-0.67,0.22,13,0,3,3,3
12116,791,-56,216,974,-99,49,100,-8,670,-64.94,83.06,52.06,0.69,0.15,-0.67,0.24,13,0,3,3,3
12150,931,-79,10,971,-128,46,67,-155,745,-70.00,82.00,50.63,0.68,0.15,-0.67,0.24,13,0,3,3,3
12180,1040,-124,159,968,-150,41,1,-161,466,-74.56,80.81,49.25,0.68,0.14,-0.68,0.25,13,0,3,3,3
12209,1033,-24,-133,967,-152,40,-109,11,-89,-75.31,80.69,49.25,0.68,0.14,-0.68,0.25,13,0,3,3,3
12238,926,-215,135,968,-148,41,-50,121,-108,-73.75,80.94,49.75,0.68,0.14,-0.68,0.25,13,0,3,3,3
12268,877,-113,-116,968,-145,45,37,46,-252,-72.63,81.06,49.88,0.68,0.14,-0.68,0.25,13,0,3,3,3
12302,1139,-32,249,970,-132,48,108,123,-240,-70.06,81.69,50.44,0.68,0.14,-0.67,0.24,13,0,3,3,3
12333,996,-141,115,970,-127,55,54,270,-228,-66.44,81.81,50.75,0.68,0.14,-0.67,0.24,13,0,3,3,3
12361,946,-147,158,970,-122,64,105,286,-141,-62.19,81.88,50.88,0.69,0.15,-0.67,0.24,13,0,3,3,3
12391,1009,-127,31,968,-133,74,33,344,603,-60.75,81.00,50.19,0.69,0.14,-0.66,0.25,13,0,3,3,3
12421,879,-44,32,966,-141,85,0,322,247,-59.00,80.25,49.75,0.69,0.14,-0.66,0.25,13,0,3,3,3
12450,952,-60,146,964,-147,93,-93,270,128,-57.63,79.69,49.56,0.69,0.13,-0.66,0.26,13,0,3,3,3
12483,910,-220,291,964,-146,101,-31,255,-11,-55.38,79.50,49.81,0.70,0.13,-0.66,0.25,13,0,3,3,3
12513,928,-175,134,964,-144,107,104,144,-44,-53.38,79.38,49.94,0.70,0.13,-0.65,0.26,13,0,3,3,3
12542,1022,-42,129,963,-144,111,388,44,104,-52.38,79.25,49.50,0.70,0.14,-0.65,0.26,13,0,3,3,3
12572,1305,-315,-67,962,-150,115,373,193,313,-52.38,78.81,48.50,0.70,0.14,-0.65,0.26,13,0,3,3,3
12602,707,-68,131,958,-163,128,394,327,610,-51.88,77.75,47.06,0.70,0.13,-0.65,0.27,13,0,3,3,3
12635,913,-107,272,956,-168,134,311,62,-49,-51.50,77.25,46.13,0.70,0.14,-0.64,0.28,13,0,3,3,3
12663,1160,-190,191,956,-167,138,382,119,188,-50.50,77.13,45.63,0.70,0.14,-0.64,0.29,13,0,3,3,3
12695,1223,295,158,954,-169,149,163,422,-157,-48.63,76.63,45.00,0.70,0.14,-0.64,0.29,13,0,3,3,3
12727,1175,56,3,954,-156,164,-418,496,-675,-43.63,76.56,46.38,0.71,0.14,-0.63,0.28,13,0,3,3,3
12756,923,-553,103,953,-143,180,-148,693,-585,-38.44,76.31,47.94,0.72,0.14,-0.62,0.28,13,0,3,3,3
12791,822,-215,146,950,-136,200,301,496,233,-33.88,75.31,48.00,0.73,0.14,-0.61,0.28,13,0,3,3,3
12820,839,-36,190,946,-135,215,204,423,-30,-31.44,74.69,47.81,0.73,0.14,-0.61,0.28,13,0,3,3,3
12852,1080,-83,160,943,-132,233,15,456,-106,-29.63,74.06,47.88,0.73,0.14,-0.60,0.28,13,0,3,3,3
12881,731,-231,281,940,-136,243,159,500,281,-29.00,73.13,47.38,0.74,0.14,-0.60,0.29,13,0,3,3,3
12911,785,-27,189,936,-140,255,216,177,207,-28.81,72.56,46.75,0.74,0.14,-0.59,0.29,13,0,3,3,3
12942,988,-166,228,934,-143,259,194,92,321,-29.25,72.19,46.13,0.74,0.14,-0.59,0.30,13,0,3,3,3
12975,832,-127,171,931,-149,267,138,236,-64,-29.25,71.75,45.63,0.74,0.14,-0.59,0.30,13,0,3,3,3
13003,1045,-335,353,928,-152,274,333,230,316,-29.00,71.25,45.06,0.74,0.14,-0.58,0.31,13,0,3,3,3
13033,1024,-190,254,922,-168,287,659,375,920,-30.31,70.13,43.06,0.74,0.13,-0.58,0.32,13,0,3,3,3
13063,931,9,575,912,-187,306,586,615,384,-31.44,68.50,40.75,0.74,0.13,-0.57,0.34,13,0,3,3,3
13093,951,-139,440,905,-196,320,582,617,592,-31.44,66.94,39.00,0.74,0.13,-0.56,0.35,13,0,3,3,3
13125,920,-83,132,888,-221,351,791,719,1349,-32.19,64.94,36.44,0.74,0.13,-0.55,0.37,13,0,3,3,3
13155,871,-282,397,871,-244,378,693,797,880,-32.81,62.63,33.75,0.73,0.12,-0.54,0.39,13,0,3,3,3
13185,885,-323,399,857,-245,407,823,870,356,-31.06,60.94,32.44,0.74,0.12,-0.53,0.40,13,0,3,3,3
13214,900,-92,517,842,-243,438,882,915,327,-29.00,59.25,31.13,0.74,0.12,-0.51,0.42,13,0,3,3,3
13244,837,-154,128,832,-239,459,774,972,98,-26.69,57.56,30.25,0.75,0.12,-0.50,0.43,13,0,3,3,3
13277,837,-203,420,810,-229,502,841,1031,278,-24.56,55.69,29.31,0.75,0.12,-0.48,0.44,13,0,3,3,3
13305,825,-133,572,790,-221,536,888,1122,260,-22.44,53.69,28.31,0.76,0.12,-0.46,0.45,13,0,3,3,3
13335,757,-81,491,768,-213,570,855,1153,338,-20.50,51.56,27.25,0.76,0.12,-0.44,0.46,13,0,3,3,3
13365,756,-210,558,745,-202,603,881,1166,267,-18.50,49.50,26.44,0.76,0.13,-0.42,0.47,13,0,3,3,3
13394,717,-81,616,728,-197,626,1024,1174,494,-17.00,47.13,24.94,0.77,0.12,-0.40,0.49,13,0,3,3,3
13424,653,32,344,694,-179,668,850,1138,55,-15.00,45.06,24.13,0.77,0.13,-0.38,0.50,13,0,3,3,3
13458,565,-112,612,670,-162,697,781,1124,-145,-13.06,43.06,293.75,0.77,0.13,-0.36,0.51,13,0,3,3,3
13491,550,-87,636,646,-142,723,709,1050,-104,-11.13,41.19,293.63,0.78,0.13,-0.34,0.51,13,0,3,3,3
13520,516,52,1018,623,-126,746,634,968,100,-9.63,39.44,293.44,0.78,0.13,-0.32,0.51,13,0,3,3,3
13552,563,80,733,603,-108,765,402,863,-522,-7.56,37.50,294.06,0.79,0.13,-0.30,0.51,13,0,3,3,3
13583,477,-116,774,585,-92,781,254,765,-526,-6.69,36.63,294.63,0.80,0.13,-0.29,0.51,13,0,3,3,3
13616,468,25,611,562,-71,800,325,747,-490,-5.13,35.00,295.50,0.81,0.13,-0.28,0.51,13,0,3,3,3
13645,519,5,641,548,-64,810,220,832,-119,-4.31,33.50,295.69,0.81,0.13,-0.26,0.51,13,0,3,3,3
13704,491,66,846,509,-49,836,243,687,-260,-3.13,30.81,296.00,0.82,0.12,-0.24,0.51,13,0,3,3,3
13735,429,93,774,491,-37,847,146,652,-630,-2.06,29.69,297.25,0.83,0.12,-0.23,0.50,13,0,3,3,3
13764,444,-39,712,475,-17,857,124,728,-678,-0.88,28.50,299.00,0.84,0.12,-0.22,0.49,13,0,3,3,3
13799,426,166,759,448,0,872,46,780,-787,0.00,27.13,300.50,0.84,0.12,-0.20,0.48,13,0,3,3,3
13828,485,41,678,425,8,883,9,841,-422,0.50,25.69,301.44,0.85,0.11,-0.19,0.48,13,0,3,3,3
13857,425,-98,749,399,16,895,188,951,-357,1.00,24.00,302.06,0.86,0.11,-0.18,0.47,13,0,3,3,3
13887,227,170,959,381,23,903,128,857,-401,1.63,22.31,302.69,0.86,0.10,-0.16,0.47,13,0,3,3,3
13917,250,-25,877,350,32,915,31,733,-566,2.00,20.94,303.50,0.87,0.10,-0.15,0.47,13,0,3,3,3
13947,323,123,833,336,37,920,-15,744,-200,2.31,19.56,304.25,0.87,0.10,-0.14,0.46,13,0,3,3,3
13979,272,84,870,308,37,930,-119,628,-346,2.25,18.31,304.69,0.87,0.09,-0.13,0.46,13,0,3,3,3
14009,283,73,902,291,37,935,-107,541,-378,2.25,17.25,305.44,0.88,0.09,-0.12,0.45,13,0,3,3,3
14039,217,52,873,274,37,940,-53,575,-187,2.25,16.25,305.81,0.88,0.08,-0.12,0.45,13,0,3,3,3
14068,-1,58,908,257,36,945,-156,533,-252,2.19,15.19,306.38,0.88,0.08,-0.11,0.45,13,0,3,3,3
14098,-27,-12,940,249,33,947,-81,224,26,1.94,14.63,306.25,0.88,0.07,-0.11,0.45,13,0,3,3,3
14128,39,-46,850,246,35,948,57,-81,-602,2.13,14.56,307.06,0.89,0.07,-0.11,0.44,13,0,3,3,3
14161,87,-18,879,252,44,946,187,-263,-378,2.63,14.88,307.94,0.89,0.08,-0.11,0.43,13,0,3,3,3
14192,148,19,913,262,52,943,292,-359,71,3.13,15.50,308.00,0.89,0.08,-0.11,0.43,13,0,3,3,3
14221,92,31,930,274,61,939,399,-408,245,3.75,16.25,307.56,0.89,0.09,-0.11,0.44,13,0,3,3,3
14251,110,40,854,288,71,934,510,-450,727,4.31,17.06,306.56,0.88,0.10,-0.12,0.44,13,0,3,3,3
14280,362,0,494,304,78,928,593,-444,1003,4.81,18.06,304.63,0.87,0.11,-0.12,0.46,13,0,3,3,3
14313,386,-146,834,317,90,923,645,-386,473,5.56,18.88,303.31,0.87,0.12,-0.12,0.47,13,0,3,3,3
14345,540,80,1076,331,103,917,813,-357,1428,6.38,19.69,301.56,0.86,0.13,-0.12,0.48,13,0,3,3,3
14373,431,301,941,347,108,910,957,-349,1863,6.75,20.75,297.56,0.84,0.14,-0.13,0.51,13,0,3,3,3
14406,370,290,862,363,125,902,852,-466,499,7.88,21.69,296.00,0.83,0.16,-0.13,0.52,13,0,3,3,3
14438,415,271,854,381,138,892,638,-555,574,8.81,22.81,294.81,0.82,0.17,-0.13,0.53,13,0,3,3,3
14467,475,398,893,400,143,883,465,-576,893,9.19,24.50,292.63,0.81,0.18,-0.14,0.54,13,0,3,3,3
14501,532,349,787,425,138,872,79,-492,703,9.00,25.69,291.31,0.80,0.19,-0.14,0.55,13,0,3,3,3
14531,625,321,780,438,125,868,-242,-304,517,8.25,26.50,290.25,0.80,0.19,-0.15,0.55,13,0,3,3,3
14561,701,282,800,442,112,867,-460,-25,-54,7.38,26.75,290.19,0.80,0.18,-0.16,0.56,13,0,3,3,3
14590,633,113,758,439,106,870,-465,279,-272,6.75,26.38,290.81,0.80,0.17,-0.16,0.55,13,0,3,3,3
14620,543,22,763,423,95,879,-321,520,-140,6.13,25.56,291.25,0.80,0.17,-0.16,0.55,13,0,3,3,3
14654,464,58,829,405,90,888,-185,655,-159,5.81,24.44,291.56,0.81,0.16,-0.15,0.55,13,0,3,3,3
14684,363,77,876,386,89,896,-92,669,-193,5.69,23.19,291.88,0.81,0.15,-0.14,0.55,13,0,3,3,3
14712,292,121,880,367,90,904,-79,588,-269,5.63,22.00,292.25,0.81,0.15,-0.13,0.55,13,0,3,3,3
14742,182,145,896,354,91,909,-107,321,-371,5.75,21.19,293.00,0.82,0.14,-0.13,0.54,13,0,3,3,3
14772,147,182,881,350,90,911,-156,-5,-214,5.69,20.94,293.50,0.82,0.14,-0.13,0.54,13,0,3,3,3
14801,246,141,837,353,88,910,-201,-201,-96,5.38,21.25,293.75,0.82,0.14,-0.13,0.54,13,0,3,3,3
14834,396,-13,739,365,78,906,-118,-282,442,4.94,21.81,293.44,0.82,0.14,-0.14,0.54,13,0,3,3,3
14864,537,96,842,372,71,904,-76,-144,461,4.50,22.25,292.69,0.82,0.14,-0.14,0.54,13,0,3,3,3
14894,579,52,773,371,66,905,-92,142,116,4.13,22.25,292.25,0.81,0.14,-0.14,0.55,13,0,3,3,3
14922,527,101,845,361,64,909,-83,425,-145,4.06,21.63,292.44,0.82,0.13,-0.14,0.55,13,0,3,3,3
14952,394,126,843,351,64,913,-170,480,-460,4.00,20.69,293.13,0.82,0.13,-0.13,0.54,13,0,3,3,3
14985,386,139,862,330,64,920,-245,536,-602,3.94,19.69,294.13,0.83,0.12,-0.13,0.53,13,0,3,3,3
15013,351,158,868,312,62,927,-299,604,-625,3.81,18.56,295.31,0.83,0.11,-0.12,0.53,13,0,3,3,3
15044,309,153,855,293,58,934,-368,628,-648,3.56,17.38,296.56,0.84,0.11,-0.11,0.52,13,0,3,3,3
15074,294,146,863,273,51,940,-415,632,-394,3.13,16.13,297.69,0.85,0.10,-0.11,0.51,13,0,3,3,3
15104,166,82,946,260,46,944,-444,586,-821,2.63,15.00,299.00,0.85,0.09,-0.10,0.50,13,0,3,3,3
15136,86,98,922,237,35,950,-462,472,-636,2.13,14.00,300.38,0.86,0.08,-0.10,0.49,13,0,3,3,3
15165,129,22,916,225,25,954,-418,348,-242,1.50,13.25,301.13,0.87,0.07,-0.09,0.49,13,0,3,3,3
15195,130,47,952,216,15,956,-352,273,-157,0.88,12.75,301.50,0.87,0.06,-0.09,0.49,13,0,3,3,3
15224,86,76,940,210,6,957,-346,183,-195,0.38,12.31,301.88,0.87,0.06,-0.09,0.48,13,0,3,3,3
15255,122,56,930,206,-3,958,-371,82,-54,-0.19,12.13,302.13,0.87,0.05,-0.09,0.48,13,0,3,3,3
15285,194,29,941,205,-14,958,-383,25,-146,-0.88,12.06,302.38,0.87,0.04,-0.10,0.48,13,0,3,3,3
15318,158,-37,925,206,-24,958,-394,-55,-383,-1.44,12.13,303.06,0.87,0.04,-0.10,0.47,13,0,3,3,3
15348,179,-79,927,209,-32,957,-329,-131,-609,-1.88,12.31,303.94,0.88,0.04,-0.10,0.47,13,0,3,3,3
15378,275,-73,912,213,-37,956,-217,-85,-178,-2.19,12.56,304.81,0.88,0.03,-0.11,0.46,13,0,3,3,3
15409,249,-71,899,213,-42,956,-79,64,161,-2.50,12.50,304.50,0.88,0.03,-0.11,0.46,13,0,3,3,3
15440,261,-31,894,209,-43,957,32,118,251,-2.56,12.31,304.13,0.88,0.03,-0.11,0.47,13,0,3,3,3
15472,239,4,909,205,-42,958,72,156,116,-2.50,11.94,303.75,0.88,0.03,-0.10,0.47,13,0,3,3,3
15504,195,4,923,199,-40,959,84,180,94,-2.38,11.63,303.56,0.88,0.03,-0.10,0.47,13,0,3,3,3
15534,203,-20,942,194,-38,960,113,155,183,-2.25,11.31,303.25,0.88,0.03,-0.10,0.47,13,0,3,3,3
15564,193,-26,948,189,-36,961,169,160,158,-2.06,11.00,302.88,0.87,0.03,-0.09,0.48,13,0,3,3,3
15595,175,-5,939,184,-31,962,211,124,142,-1.69,10.75,302.63,0.87,0.03,-0.09,0.48,13,0,3,3,3
15625,192,31,923,180,-25,963,197,113,-6,-1.38,10.50,302.44,0.87,0.03,-0.09,0.48,13,0,3,3,3
15659,204,78,904,175,-17,964,145,154,-187,-1.00,10.25,302.69,0.87,0.04,-0.08,0.48,13,0,3,3,3
15687,164,84,904,170,-12,965,90,187,-276,-0.75,9.94,303.06,0.88,0.04,-0.08,0.47,13,0,3,3,3
15717,127,78,915,164,-9,966,28,198,-265,-0.56,9.63,303.56,0.88,0.04,-0.08,0.47,13,0,3,3,3
15748,108,74,942,158,-9,967,-26,194,-171,-0.50,9.25,303.94,0.88,0.03,-0.07,0.47,13,0,3,3,3
15776,50,64,926,153,-10,968,-92,116,-169,-0.56,9.00,304.25,0.88,0.03,-0.07,0.47,13,0,3,3,3
15807,81,57,873,152,-12,968,-120,-17,425,-0.88,8.94,303.94,0.88,0.03,-0.07,0.47,13,0,3,3,3
15834,117,31,960,153,-18,968,-161,-51,153,-1.19,9.06,303.75,0.88,0.03,-0.07,0.47,13,0,3,3,3
15865,83,-187,889,154,-21,968,5,29,-130,-1.25,9.06,304.38,0.88,0.03,-0.08,0.46,13,0,3,3,3
15897,136,29,916,154,-20,968,65,14,-34,-1.13,9.00,304.44,0.88,0.03,-0.07,0.46,13,0,3,3,3
15926,172,46,904,153,-18,968,-28,64,-192,-1.06,8.94,304.75,0.88,0.03,-0.07,0.46,13,0,3,3,3
15956,250,-138,882,150,-18,968,2,132,-149,-1.00,8.69,305.00,0.88,0.03,-0.07,0.46,13,0,3,3,3
15989,5,160,949,142,-14,970,87,164,348,-0.81,8.31,304.81,0.88,0.03,-0.07,0.46,13,0,3,3,3
16019,60,95,955,139,-16,970,-129,47,-82,-0.94,8.13,304.69,0.88,0.03,-0.07,0.46,13,0,3,3,3
16049,61,30,934,140,-20,970,-193,-82,-76,-1.25,8.25,304.81,0.88,0.02,-0.07,0.46,13,0,3,3,3
16077,237,17,869,143,-25,969,-195,-51,-125,-1.63,8.38,305.06,0.88,0.02,-0.07,0.46,13,0,3,3,3
16108,108,-21,933,143,-31,969,-205,-4,-7,-1.94,8.44,305.13,0.89,0.02,-0.07,0.46,13,0,3,3,3
16138,122,-43,921,145,-36,969,-141,-61,-93,-2.25,8.50,305.25,0.89,0.02,-0.08,0.46,13,0,3,3,3
16172,157,-18,938,148,-41,968,-102,-78,-59,-2.44,8.63,305.38,0.89,0.02,-0.08,0.46,13,0,3,3,3
16201,165,-18,951,149,-43,968,-80,-38,-88,-2.56,8.75,305.56,0.89,0.02,-0.08,0.46,13,0,3,3,3
16230,140,-28,939,149,-44,968,-44,15,-118,-2.63,8.75,305.75,0.89,0.01,-0.08,0.45,13,0,3,3,3
16260,131,-33,941,148,-44,968,10,60,-33,-2.63,8.69,305.88,0.89,0.01,-0.08,0.45,13,0,3,3,3
16289,124,-11,952,145,-43,968,26,93,1,-2.50,8.50,305.88,0.89,0.01,-0.08,0.45,13,0,3,3,3
16322,124,6,942,141,-41,969,9,103,28,-2.44,8.31,305.88,0.89,0.01,-0.07,0.45,13,0,3,3,3
16352,91,13,945,137,-40,970,-18,98,13,-2.38,8.06,305.81,0.89,0.01,-0.07,0.45,13,0,3,3,3
16381,58,8,939,135,-41,970,-43,47,10,-2.44,7.94,305.81,0.89,0.01,-0.07,0.45,13,0,3,3,3
16411,97,0,914,135,-43,970,-63,-30,5,-2.50,7.94,305.81,0.89,0.01,-0.07,0.45,13,0,3,3,3
16441,102,14,928,138,-45,969,-88,-101,-52,-2.63,8.06,305.94,0.89,0.01,-0.07,0.45,13,0,3,3,3
16471,97,25,920,141,-46,969,-104,-152,-72,-2.75,8.31,306.13,0.89,0.01,-0.08,0.45,13,0,3,3,3
16503,172,-6,921,146,-50,968,-118,-146,-19,-2.94,8.56,306.13,0.89,0.01,-0.08,0.45,13,0,3,3,3
16533,177,-33,929,149,-54,967,-131,-45,-26,-3.19,8.75,306.19,0.89,0.01,-0.08,0.45,13,0,3,3,3
16563,142,-63,923,148,-57,967,-113,49,-16,-3.38,8.69,306.25,0.89,0.01,-0.08,0.45,13,0,3,3,3
16591,149,-53,930,146,-60,967,-66,57,47,-3.56,8.56,306.25,0.89,0.01,-0.08,0.45,13,0,3,3,3
16622,86,-35,952,146,-61,967,-28,4,-31,-3.63,8.56,306.31,0.89,0.01,-0.08,0.45,13,0,3,3,3
16655,130,-17,947,147,-61,967,1,-60,-2,-3.63,8.63,306.31,0.89,0.01,-0.08,0.45,13,0,3,3,3
16684,53,22,949,149,-61,967,-22,-48,7,-3.63,8.69,306.31,0.89,0.01,-0.08,0.45,13,0,3,3,3
16713,-137,27,976,154,-63,966,-96,-220,-97,-3.75,9.00,306.44,0.89,0.01,-0.09,0.45,13,0,3,3,3
16744,337,-22,862,167,-68,963,-202,-426,-70,-4.06,9.81,306.50,0.89,0.01,-0.09,0.45,13,0,3,3,3
16773,373,-65,845,174,-74,962,-198,-91,-30,-4.44,10.19,306.63,0.89,0.01,-0.10,0.45,13,0,3,3,3
16803,339,-81,870,169,-79,962,-121,228,108,-4.69,9.94,306.50,0.89,0.00,-0.10,0.45,13,0,3,3,3
16835,127,-97,914,159,-82,964,-36,346,85,-4.81,9.31,306.38,0.89,-0.00,-0.09,0.45,13,0,3,3,3
16866,34,-48,963,150,-82,965,2,249,91,-4.88,8.81,306.25,0.89,-0.00,-0.09,0.45,13,0,3,3,3
16898,97,-47,965,150,-85,965,-129,-113,30,-5.06,8.81,306.13,0.89,-0.00,-0.09,0.45,13,0,3,3,3
16926,134,-81,967,154,-88,964,-94,-123,-5,-5.25,9.00,306.19,0.89,-0.00,-0.09,0.45,13,0,3,3,3
16958,185,0,926,156,-91,963,-105,-64,117,-5.38,9.19,306.06,0.89,-0.01,-0.09,0.45,13,0,3,3,3
16991,240,-147,925,156,-94,963,-28,68,24,-5.63,9.13,306.06,0.89,-0.01,-0.09,0.45,13,0,3,3,3
17022,150,-97,940,154,-94,963,68,117,12,-5.56,8.94,306.06,0.89,-0.01,-0.09,0.45,13,0,3,3,3
17053,-219,85,987,151,-92,964,13,-77,34,-5.44,8.88,306.06,0.89,-0.01,-0.09,0.45,13,0,3,3,3
17082,227,-93,901,153,-92,964,26,14,-20,-5.44,8.94,306.00,0.89,-0.01,-0.09,0.45,13,0,3,3,3
17113,168,-63,939,151,-91,964,38,89,67,-5.38,8.81,305.88,0.89,-0.01,-0.09,0.45,13,0,3,3,3
17142,113,101,880,146,-91,965,-112,187,-19,-5.44,8.44,305.81,0.89,-0.01,-0.09,0.45,13,0,3,3,3
17176,350,-320,833,141,-99,965,-256,93,6,-5.88,8.25,305.88,0.89,-0.01,-0.09,0.45,13,0,3,3,3
17207,38,-107,987,135,-101,965,-14,193,46,-6.00,7.94,305.94,0.89,-0.01,-0.09,0.45,13,0,3,3,3
17235,166,-205,975,130,-101,966,76,145,96,-5.94,7.63,305.69,0.89,-0.02,-0.08,0.45,13,0,3,3,3
17265,181,-100,973,125,-96,967,169,192,136,-5.69,7.31,305.56,0.89,-0.01,-0.08,0.46,13,0,3,3,3
17295,-54,196,973,119,-95,968,-50,130,8,-5.63,7.00,305.50,0.89,-0.02,-0.08,0.46,13,0,3,3,3
17328,108,-174,937,121,-99,968,-116,-125,-81,-5.81,7.13,305.56,0.89,-0.02,-0.08,0.46,13,0,3,3,3
17359,-4,263,925,123,-99,967,57,60,33,-5.81,7.19,305.56,0.89,-0.02,-0.08,0.46,13,0,3,3,3
17388,98,45,916,121,-99,968,-26,79,99,-5.81,7.06,305.63,0.89,-0.02,-0.08,0.45,13,0,3,3,3
17419,46,-164,916,119,-102,968,-112,46,-91,-6.00,6.94,305.81,0.89,-0.02,-0.08,0.45,13,0,3,3,3
17449,186,-148,926,118,-102,968,32,30,61,-6.06,6.88,305.75,0.89,-0.02,-0.08,0.45,13,0,3,3,3
17478,20,39,896,114,-98,968,185,190,40,-5.75,6.69,305.81,0.89,-0.02,-0.07,0.45,13,0,3,3,3
17512,85,72,933,109,-94,969,86,126,41,-5.56,6.38,305.81,0.89,-0.02,-0.07,0.45,13,0,3,3,3
17541,61,-54,956,105,-95,970,-48,107,13,-5.56,6.19,305.75,0.89,-0.02,-0.07,0.45,13,0,3,3,3
17572,82,-62,981,103,-97,970,-57,53,-14,-5.69,6.00,305.75,0.89,-0.02,-0.07,0.45,13,0,3,3,3
17603,109,-144,960,103,-97,970,38,-7,19,-5.69,6.00,305.75,0.89,-0.02,-0.07,0.45,13,0,3,3,3
17633,99,-67,947,103,-94,970,134,-8,12,-5.44,6.00,305.69,0.89,-0.02,-0.07,0.46,13,0,3,3,3
17665,84,-31,933,103,-89,971,139,-15,-5,-5.25,6.06,305.69,0.89,-0.02,-0.07,0.46,13,0,3,3,3
17696,114,-22,932,104,-84,971,95,-14,-3,-4.94,6.06,305.63,0.89,-0.01,-0.07,0.46,13,0,3,3,3
17727,80,-19,932,104,-81,971,20,-10,-18,-4.75,6.06,305.69,0.89,-0.01,-0.07,0.46,13,0,3,3,3
17757,106,-34,927,104,-78,971,5,-14,-2,-4.56,6.06,305.69,0.89,-0.01,-0.07,0.46,13,0,3,3,3
17787,63,11,900,103,-76,972,-43,3,27,-4.50,6.06,305.69,0.89,-0.01,-0.07,0.46,13,0,3,3,3
17817,120,-72,927,104,-79,971,-148,-7,-48,-4.69,6.06,305.75,0.89,-0.01,-0.07,0.45,13,0,3,3,3
17850,54,-134,995,103,-83,971,-59,29,75,-4.88,6.00,305.69,0.89,-0.01,-0.07,0.46,13,0,3,3,3
17880,114,-108,953,102,-82,971,66,2,107,-4.81,6.00,305.44,0.89,-0.01,-0.07,0.46,13,0,3,3,3
17909,103,-41,944,103,-79,971,122,-33,31,-4.63,6.00,305.38,0.89,-0.01,-0.07,0.46,13,0,3,3,3
17939,88,-9,921,105,-76,972,79,-72,-1,-4.44,6.13,305.38,0.89,-0.01,-0.07,0.46,13,0,3,3,3
17969,95,-20,926,107,-75,971,17,-95,-14,-4.38,6.31,305.38,0.89,-0.01,-0.07,0.46,13,0,3,3,3
17997,106,-31,929,110,-73,971,-28,-78,-13,-4.31,6.44,305.38,0.89,-0.01,-0.07,0.46,13,0,3,3,3
18031,120,-64,921,112,-73,971,-29,-41,2,-4.31,6.56,305.38,0.89,-0.01,-0.07,0.46,13,0,3,3,3
18062,116,-63,916,113,-74,971,-6,-10,25,-4.31,6.56,305.38,0.89,-0.01,-0.07,0.46,13,0,3,3,3
18091,118,-52,933,112,-73,971,10,26,38,-4.31,6.56,305.31,0.89,-0.01,-0.07,0.46,13,0,3,3,3
18120,104,-44,933,111,-73,971,15,38,17,-4.25,6.50,305.25,0.89,-0.01,-0.07,0.46,13,0,3,3,3
18149,97,-44,948,110,-72,971,18,27,57,-4.25,6.44,305.19,0.89,-0.01,-0.07,0.46,13,0,3,3,3
18183,75,11,928,110,-73,971,-83,-41,1,-4.31,6.44,305.06,0.89,-0.01,-0.07,0.46,13,0,3,3,3
18213,77,50,889,112,-78,970,-228,-51,-21,-4.63,6.56,305.13,0.89,-0.01,-0.07,0.46,13,0,3,3,3
18242,146,-275,1000,114,-87,970,-235,-54,83,-5.13,6.63,305.06,0.89,-0.01,-0.07,0.46,13,0,3,3,3
18274,143,-148,954,114,-89,969,-14,14,-1,-5.25,6.69,304.94,0.88,-0.01,-0.07,0.46,13,0,3,3,3
18305,133,-103,947,112,-88,970,47,52,54,-5.19,6.56,304.81,0.88,-0.01,-0.07,0.46,13,0,3,3,3
18334,88,-61,951,110,-86,970,93,50,33,-5.06,6.44,304.75,0.88,-0.01,-0.07,0.46,13,0,3,3,3
18368,107,-67,957,110,-83,970,115,3,26,-4.88,6.44,304.69,0.88,-0.01,-0.07,0.46,13,0,3,3,3
18398,114,-56,939,110,-78,971,146,1,1,-4.50,6.44,304.63,0.88,-0.01,-0.07,0.46,13,0,3,3,3
18429,105,-29,928,109,-74,971,110,28,23,-4.31,6.38,304.63,0.88,-0.01,-0.07,0.46,13,0,3,3,3
18460,105,-32,929,108,-71,971,83,32,21,-4.13,6.31,304.56,0.88,-0.01,-0.07,0.46,13,0,3,3,3
18489,89,-32,921,107,-68,972,47,39,20,-4.00,6.25,304.50,0.88,-0.01,-0.06,0.46,13,0,3,3,3
18520,91,-35,933,106,-66,972,40,26,12,-3.88,6.19,304.50,0.88,-0.00,-0.06,0.46,13,0,3,3,3
18552,89,-36,934,105,-64,972,18,7,7,-3.75,6.13,304.50,0.88,-0.00,-0.06,0.46,13,0,3,3,3
18582,84,-50,931,105,-63,972,12,-10,-7,-3.69,6.13,304.50,0.88,-0.00,-0.06,0.46,13,0,3,3,3
18612,87,-29,938,105,-62,972,4,-19,1,-3.69,6.13,304.50,0.88,-0.00,-0.06,0.46,13,0,3,3,3
18641,112,-35,929,105,-62,972,-15,-16,11,-3.63,6.19,304.50,0.88,-0.00,-0.06,0.46,13,0,3,3,3
18671,103,-44,927,105,-62,972,-12,0,3,-3.63,6.19,304.50,0.88,-0.00,-0.06,0.46,13,0,3,3,3
18705,95,-44,945,105,-62,972,-11,3,8,-3.63,6.19,304.50,0.88,-0.00,-0.06,0.46,13,0,3,3,3
18734,97,-42,934,105,-62,972,-18,0,12,-3.63,6.19,304.44,0.88,-0.00,-0.06,0.46,13,0,3,3,3
18763,103,-50,928,105,-62,972,-12,-6,8,-3.69,6.19,304.44,0.88,-0.00,-0.06,0.46,13,0,3,3,3
18793,110,-47,937,105,-62,972,4,0,7,-3.69,6.19,304.44,0.88,-0.00,-0.06,0.46,13,0,3,3,3
18823,106,-34,935,106,-62,972,-6,10,7,-3.63,6.19,304.44,0.88,-0.00,-0.06,0.46,13,0,3,3,3
18852,0,18,774,105,-62,972,-42,14,20,-3.69,6.13,304.44,0.88,-0.00,-0.06,0.46,13,0,3,3,3
18885,143,-66,1020,108,-71,972,-388,-156,27,-4.13,6.31,304.38,0.88,-0.01,-0.07,0.47,13,0,3,3,3
18916,282,-361,1025,111,-79,971,-133,9,2,-4.63,6.50,304.50,0.88,-0.01,-0.07,0.46,13,0,3,3,3
18945,11,7,1011,105,-75,972,181,241,86,-4.44,6.13,304.44,0.88,-0.01,-0.07,0.47,13,0,3,3,3
18974,116,-115,986,99,-71,972,154,147,67,-4.19,5.81,304.31,0.88,-0.01,-0.06,0.47,13,0,3,3,3
19004,182,-88,915,93,-62,974,373,233,51,-3.63,5.44,304.19,0.88,-0.01,-0.06,0.47,13,0,3,3,3
19037,-111,95,961,84,-52,975,258,275,100,-3.06,4.94,304.00,0.88,-0.00,-0.05,0.47,13,0,3,3,3
19068,-33,84,995,84,-53,975,-80,-66,-49,-3.06,4.88,304.06,0.88,-0.00,-0.05,0.47,13,0,3,3,3
19097,103,-50,902,87,-58,974,-186,-123,-70,-3.38,5.13,304.19,0.88,-0.01,-0.05,0.47,13,0,3,3,3
19128,25,-17,942,90,-62,974,-144,-86,-71,-3.69,5.31,304.38,0.88,-0.01,-0.06,0.47,13,0,3,3,3
19160,111,-82,902,95,-67,973,-156,-181,-33,-3.94,5.56,304.44,0.88,-0.01,-0.06,0.46,13,0,3,3,3
19188,154,-130,920,99,-69,973,19,-86,3,-4.06,5.81,304.44,0.88,-0.01,-0.06,0.46,13,0,3,3,3
19223,102,-45,933,101,-66,973,91,-48,-21,-3.88,5.88,304.50,0.88,-0.01,-0.06,0.46,13,0,3,3,3
19253,34,0,939,102,-64,973,28,-58,18,-3.75,6.00,304.44,0.88,-0.00,-0.06,0.46,13,0,3,3,3
19283,114,-9,895,104,-64,972,-67,-64,-15,-3.81,6.13,304.44,0.88,-0.00,-0.06,0.46,13,0,3,3,3
19314,131,-67,954,106,-66,972,-82,-24,26,-3.94,6.19,304.44,0.88,-0.01,-0.06,0.47,13,0,3,3,3
19344,97,-64,938,105,-68,972,-56,29,56,-4.06,6.13,304.31,0.88,-0.01,-0.06,0.47,13,0,3,3,3
19375,122,-105,947,104,-70,972,-26,27,54,-4.13,6.06,304.25,0.88,-0.01,-0.06,0.47,13,0,3,3,3
19406,100,-34,951,102,-69,972,40,43,55,-4.06,6.00,304.13,0.88,-0.01,-0.06,0.47,13,0,3,3,3
19436,96,-90,988,103,-67,972,91,-36,20,-3.94,6.00,304.13,0.88,-0.01,-0.06,0.47,13,0,3,3,3
19467,115,-26,929,104,-64,972,72,-47,-8,-3.75,6.06,304.13,0.88,-0.00,-0.06,0.47,13,0,3,3,3
19495,75,-52,954,106,-62,972,61,-61,0,-3.69,6.19,304.13,0.88,-0.00,-0.06,0.47,13,0,3,3,3
19526,118,-25,932,107,-61,972,77,-67,-14,-3.50,6.31,304.13,0.88,-0.00,-0.06,0.47,13,0,3,3,3
19558,103,-45,927,109,-59,972,10,-6,0,-3.44,6.38,304.19,0.88,-0.00,-0.06,0.47,13,0,3,3,3
19588,82,-37,952,109,-59,972,15,-10,-3,-3.44,6.38,304.19,0.88,-0.00,-0.06,0.47,13,0,3,3,3
19617,103,-36,922,110,-58,972,8,-33,34,-3.44,6.44,304.13,0.88,-0.00,-0.06,0.47,13,0,3,3,3
19647,100,-37,931,111,-58,972,-32,-40,-26,-3.44,6.50,304.13,0.88,0.00,-0.06,0.47,13,0,3,3,3
19677,103,-50,932,112,-59,972,-9,-51,-23,-3.44,6.56,304.19,0.88,0.00,-0.07,0.47,13,0,3,3,3
19706,106,-44,932,114,-59,972,-7,-55,-15,-3.44,6.69,304.19,0.88,0.00,-0.07,0.47,13,0,3,3,3
19740,130,-60,924,115,-59,971,-18,-36,-16,-3.44,6.75,304.25,0.88,0.00,-0.07,0.47,13,0,3,3,3
19770,96,-35,924,116,-59,971,-6,-5,-16,-3.50,6.81,304.25,0.88,0.00,-0.07,0.47,13,0,3,3,3
19800,99,-35,924,116,-59,971,-5,-8,-2,-3.44,6.81,304.31,0.88,0.00,-0.07,0.47,13,0,3,3,3
19829,90,-34,937,116,-59,971,-19,-12,-10,-3.44,6.81,304.31,0.88,0.00,-0.07,0.47,13,0,3,3,3
19859,95,-51,940,116,-60,971,-32,-29,-5,-3.50,6.81,304.31,0.88,0.00,-0.07,0.47,13,0,3,3,3
19892,104,-40,933,117,-60,971,-22,-33,-5,-3.56,6.88,304.31,0.88,0.00,-0.07,0.47,13,0,3,3,3
19921,120,-39,939,118,-61,971,-26,-24,0,-3.56,6.88,304.31,0.88,0.00,-0.07,0.47,13,0,3,3,3
19951,124,-53,933,118,-61,971,-23,-2,3,-3.63,6.94,304.31,0.88,0.00,-0.07,0.47,13,0,3,3,3
19981,119,-74,952,118,-62,971,-13,14,2,-3.63,6.94,304.31,0.88,0.00,-0.07,0.47,13,0,3,3,3
20009,115,-65,957,117,-62,971,13,29,-11,-3.63,6.88,304.31,0.88,0.00,-0.07,0.47,13,0,3,3,3
20039,94,3,891,117,-61,971,7,4,-69,-3.63,6.88,304.38,0.88,0.00,-0.07,0.47,13,0,3,3,3
20072,76,-98,957,119,-63,971,-101,-115,-35,-3.69,7.00,304.50,0.88,-0.00,-0.07,0.46,13,0,3,3,3
20101,203,-182,941,125,-65,970,-54,-188,-65,-3.81,7.31,304.56,0.88,0.00,-0.07,0.46,13,0,3,3,3
20130,203,-105,951,129,-64,969,63,-58,16,-3.81,7.56,304.56,0.88,0.00,-0.07,0.46,13,0,3,3,3
20160,148,-26,934,127,-62,970,82,84,19,-3.63,7.44,304.63,0.88,0.00,-0.07,0.46,13,0,3,3,3
20190,125,-34,937,123,-60,970,44,146,38,-3.56,7.19,304.50,0.88,0.00,-0.07,0.46,13,0,3,3,3
20219,39,-32,925,120,-60,971,10,82,-32,-3.50,7.00,304.56,0.88,0.00,-0.07,0.46,13,0,3,3,3
20251,77,-42,920,118,-60,971,-13,18,-55,-3.50,6.94,304.50,0.88,0.00,-0.07,0.46,13,0,3,3,3
20281,66,-20,922,119,-61,971,-74,-31,1,-3.63,6.94,304.56,0.88,0.00,-0.07,0.46,13,0,3,3,3
20311,103,-113,967,121,-63,971,-23,-67,-13,-3.69,7.06,304.63,0.88,0.00,-0.07,0.46,13,0,3,3,3
20340,130,-67,925,122,-63,970,12,-39,-23,-3.69,7.19,304.63,0.88,0.00,-0.07,0.46,13,0,3,3,3
20371,177,2,844,123,-61,970,160,-30,214,-3.50,7.19,304.50,0.88,0.00,-0.07,0.46,13,0,3,3,3
20403,70,-46,1003,124,-58,970,12,-47,-60,-3.44,7.25,304.50,0.88,0.00,-0.07,0.46,13,0,3,3,3
20433,90,-11,982,125,-59,970,-56,-31,-45,-3.50,7.31,304.56,0.88,0.00,-0.07,0.46,13,0,3,3,3
20463,113,-68,971,126,-62,970,-126,-37,-6,-3.69,7.38,304.56,0.88,0.00,-0.07,0.46,13,0,3,3,3
20493,189,-88,945,127,-64,970,-24,-29,3,-3.81,7.44,304.56,0.88,0.00,-0.07,0.46,13,0,3,3,3
20524,145,-83,918,127,-64,970,34,9,4,-3.75,7.44,304.63,0.88,0.00,-0.07,0.46,13,0,3,3,3
20552,130,2,934,127,-62,970,33,14,-37,-3.69,7.44,304.63,0.88,0.00,-0.07,0.46,13,0,3,3,3
20585,97,-41,918,128,-63,970,-36,-35,-29,-3.69,7.50,304.75,0.88,0.00,-0.07,0.46,13,0,3,3,3
20617,125,-41,910,129,-64,969,-51,-32,-35,-3.81,7.56,304.81,0.88,0.00,-0.07,0.46,13,0,3,3,3
20645,225,-98,910,129,-66,969,-29,-4,17,-3.88,7.56,304.81,0.88,0.00,-0.07,0.46,13,0,3,3,3
20677,125,-72,925,129,-65,969,30,28,4,-3.88,7.56,304.81,0.88,0.00,-0.07,0.46,13,0,3,3,3
20706,121,-40,942,128,-64,970,28,12,-1,-3.81,7.50,304.81,0.88,0.00,-0.07,0.46,13,0,3,3,3
20741,112,-33,944,128,-64,970,-9,-24,-24,-3.75,7.50,304.81,0.88,0.00,-0.07,0.46,13,0,3,3,3
20771,125,-54,939,129,-64,969,-26,-34,-34,-3.75,7.56,304.88,0.88,0.00,-0.07,0.46,13,0,3,3,3
20801,126,-62,939,130,-64,969,-12,-40,-35,-3.81,7.69,304.94,0.88,0.00,-0.07,0.46,13,0,3,3,3
20832,120,-67,940,132,-64,969,-1,-40,-43,-3.81,7.75,305.00,0.88,0.00,-0.08,0.46,13,0,3,3,3
20861,125,-45,926,133,-64,969,18,-29,-24,-3.75,7.81,305.06,0.88,0.00,-0.08,0.46,13,0,3,3,3
20892,122,-35,925,134,-63,969,-1,-15,-34,-3.69,7.81,305.13,0.89,0.00,-0.08,0.46,13,0,3,3,3
20925,117,-53,936,134,-63,969,-18,-16,-28,-3.69,7.88,305.19,0.89,0.00,-0.08,0.46,13,0,3,3,3
20955,119,-67,929,134,-63,969,-15,-10,-11,-3.75,7.88,305.25,0.89,0.00,-0.08,0.46,13,0,3,3,3
20984,116,-54,926,134,-63,969,-5,-14,-10,-3.75,7.88,305.25,0.89,0.00,-0.08,0.46,13,0,3,3,3
21014,105,-8,887,138,-66,968,-119,-163,-32,-3.88,8.13,305.25,0.89,0.00,-0.08,0.46,13,0,3,3,3
21045,189,-120,957,141,-67,968,-20,-36,-31,-4.00,8.25,305.31,0.89,0.00,-0.08,0.46,13,0,3,3,3
21078,107,-19,939,140,-68,968,-50,21,37,-4.06,8.25,305.31,0.89,0.00,-0.08,0.46,13,0,3,3,3
21106,158,-120,956,139,-70,968,-33,53,16,-4.13,8.19,305.25,0.89,0.00,-0.08,0.46,13,0,3,3,3
21136,115,-57,929,137,-69,968,57,79,26,-4.06,8.00,305.25,0.89,0.00,-0.08,0.46,13,0,3,3,3
21166,126,-74,930,135,-67,968,70,39,11,-3.94,7.94,305.19,0.89,0.00,-0.08,0.46,13,0,3,3,3
21195,106,-31,942,135,-65,969,55,-4,-11,-3.88,7.88,305.19,0.89,0.00,-0.08,0.46,13,0,3,3,3
21226,141,-56,851,135,-65,969,8,-30,-26,-3.81,7.94,305.25,0.89,0.00,-0.08,0.46,13,0,3,3,3
21258,60,8,953,134,-64,969,18,70,12,-3.75,7.88,305.25,0.89,0.00,-0.08,0.46,13,0,3,3,3
21288,156,-167,980,134,-65,969,-57,-56,31,-3.81,7.88,305.19,0.89,0.00,-0.08,0.46,13,0,3,3,3
21319,62,-40,995,137,-65,968,29,-119,-34,-3.88,8.06,305.19,0.89,0.00,-0.08,0.46,13,0,3,3,3
21349,233,-34,893,143,-65,967,-19,-174,-79,-3.81,8.38,305.25,0.89,0.00,-0.08,0.46,13,0,3,3,3
21381,200,-63,916,145,-65,967,-16,-2,-21,-3.88,8.50,305.31,0.89,0.00,-0.08,0.46,13,0,3,3,3
21409,161,-87,920,143,-64,967,48,108,27,-3.81,8.38,305.31,0.89,0.00,-0.08,0.46,13,0,3,3,3
21443,120,-56,934,139,-63,968,66,124,27,-3.69,8.06,305.25,0.89,0.00,-0.08,0.46,13,0,3,3,3
21475,93,-31,925,136,-61,969,29,71,-21,-3.63,7.94,305.25,0.89,0.00,-0.08,0.46,13,0,3,3,3
21505,89,-40,918,136,-61,969,-2,-43,-16,-3.63,8.00,305.31,0.89,0.00,-0.08,0.46,13,0,3,3,3
21535,119,-48,939,137,-60,969,-4,-76,-18,-3.56,8.00,305.31,0.89,0.00,-0.08,0.46,13,0,3,3,3
21565,136,-52,933,139,-60,968,-1,-63,-9,-3.56,8.19,305.31,0.89,0.01,-0.08,0.46,13,0,3,3,3
21599,148,-62,925,141,-60,968,-3,-36,-1,-3.56,8.31,305.31,0.89,0.01,-0.08,0.46,13,0,3,3,3
21627,146,-59,930,142,-60,968,6,8,-2,-3.56,8.31,305.31,0.89,0.01,-0.08,0.46,13,0,3,3,3
21657,130,-49,927,141,-60,968,23,17,9,-3.56,8.25,305.31,0.89,0.01,-0.08,0.46,13,0,3,3,3
21688,122,-38,930,141,-59,968,13,2,2,-3.50,8.25,305.31,0.89,0.01,-0.08,0.46,13,0,3,3,3
21716,115,-29,937,141,-59,968,-23,-27,-9,-3.50,8.25,305.31,0.89,0.01,-0.08,0.46,13,0,3,3,3
21747,126,-54,931,142,-59,968,-26,-43,-1,-3.50,8.31,305.31,0.89,0.01,-0.08,0.46,13,0,3,3,3
21780,135,-54,937,143,-60,968,-7,-42,-4,-3.56,8.38,305.31,0.89,0.01,-0.08,0.46,13,0,3,3,3
21810,135,-47,931,144,-60,968,-11,-36,-11,-3.56,8.44,305.31,0.89,0.01,-0.08,0.46,13,0,3,3,3
21838,176,-126,891,145,-60,967,0,-6,15,-3.56,8.50,305.38,0.89,0.01,-0.08,0.46,13,0,3,3,3
21868,124,-48,925,143,-59,968,51,66,4,-3.50,8.44,305.31,0.89,0.01,-0.08,0.46,13,0,3,3,3
21899,127,-50,920,141,-58,968,48,66,42,-3.38,8.31,305.25,0.89,0.01,-0.08,0.46,13,0,3,3,3
21928,90,38,948,140,-57,968,-6,42,-31,-3.38,8.19,305.25,0.89,0.01,-0.08,0.46,13,0,3,3,3
21961,168,-84,930,138,-58,969,-39,80,-30,-3.44,8.06,305.25,0.89,0.01,-0.08,0.46,13,0,3,3,3
21991,211,-151,908,133,-58,969,39,186,69,-3.44,7.81,305.19,0.89,0.00,-0.07,0.46,13,0,3,3,3
22021,49,20,946,126,-55,970,107,227,-8,-3.25,7.38,305.19,0.89,0.00,-0.07,0.46,13,0,3,3,3
22050,26,29,943,123,-54,971,-27,30,-23,-3.19,7.19,305.19,0.89,0.00,-0.07,0.46,13,0,3,3,3
22080,32,-18,955,124,-56,971,-130,-177,-106,-3.38,7.38,305.31,0.89,0.00,-0.07,0.46,13,0,3,3,3
22112,137,-73,927,134,-61,969,-127,-259,-95,-3.56,7.88,305.50,0.89,0.00,-0.08,0.46,13,0,3,3,3
22142,185,-83,917,141,-63,968,-78,-194,-79,-3.75,8.25,305.69,0.89,0.00,-0.08,0.45,13,0,3,3,3
22172,187,-87,935,145,-65,967,-37,-61,-41,-3.81,8.50,305.75,0.89,0.00,-0.08,0.45,13,0,3,3,3
22202,156,-69,940,144,-65,967,3,64,3,-3.81,8.44,305.81,0.89,0.00,-0.08,0.45,13,0,3,3,3
22232,141,-54,937,141,-64,968,12,120,4,-3.81,8.25,305.81,0.89,0.00,-0.08,0.45,13,0,3,3,3
22261,108,-49,936,138,-64,968,6,97,2,-3.81,8.06,305.81,0.89,0.00,-0.08,0.45,13,0,3,3,3
22294,100,-53,939,136,-64,968,17,31,-10,-3.75,7.94,305.81,0.89,0.00,-0.08,0.45,13,0,3,3,3
22325,102,-34,938,135,-63,969,5,-35,-20,-3.69,7.94,305.81,0.89,0.00,-0.08,0.45,13,0,3,3,3
22353,139,-71,921,137,-63,968,-26,-69,-20,-3.75,8.00,305.88,0.89,0.00,-0.08,0.45,13,0,3,3,3
22384,119,52,891,138,-64,968,-17,-50,-8,-3.75,8.13,305.88,0.89,0.00,-0.08,0.45,13,0,3,3,3
22414,145,-65,940,139,-65,968,-47,-7,37,-3.88,8.13,305.94,0.89,0.00,-0.08,0.45,13,0,3,3,3
22448,150,-66,922,138,-66,968,-18,38,8,-3.88,8.13,305.94,0.89,0.00,-0.08,0.45,13,0,3,3,3
22478,109,-98,948,137,-67,968,-35,34,20,-3.94,8.00,305.88,0.89,0.00,-0.08,0.45,13,0,3,3,3
22509,118,-64,939,137,-67,968,36,-29,-10,-3.94,8.06,305.88,0.89,0.00,-0.08,0.45,13,0,3,3,3
22541,130,-49,927,138,-66,968,29,-47,-6,-3.88,8.13,305.88,0.89,0.00,-0.08,0.45,13,0,3,3,3
22571,125,-36,933,140,-65,968,-16,-43,-6,-3.88,8.19,305.88,0.89,0.00,-0.08,0.45,13,0,3,3,3
22601,140,-65,931,141,-66,968,-38,-25,-13,-3.94,8.25,305.88,0.89,0.00,-0.08,0.45,13,0,3,3,3
22634,134,-64,927,141,-67,968,-19,0,-1,-3.94,8.25,305.94,0.89,0.00,-0.08,0.45,13,0,3,3,3
22665,133,-62,926,141,-67,968,-12,6,7,-4.00,8.25,305.94,0.89,0.00,-0.08,0.45,13,0,3,3,3
22693,127,-45,928,141,-68,967,-31,-3,-33,-4.00,8.25,305.94,0.89,0.00,-0.08,0.45,13,0,3,3,3
22723,133,-56,929,141,-69,967,-50,-14,-44,-4.06,8.31,306.00,0.89,0.00,-0.08,0.45,13,0,3,3,3
22754,129,-65,937,142,-70,967,-40,-23,-41,-4.13,8.31,306.13,0.89,0.00,-0.08,0.45,13,0,3,3,3
22784,166,-114,924,143,-70,967,16,5,-11,-4.13,8.38,306.19,0.89,0.00,-0.08,0.45,13,0,3,3,3
22816,139,-85,913,141,-69,967,12,38,-35,-4.06,8.31,306.19,0.89,0.00,-0.08,0.45,13,0,3,3,3
22847,143,-75,905,140,-69,968,15,62,-4,-4.06,8.19,306.25,0.89,0.00,-0.08,0.45,13,0,3,3,3
22879,78,28,935,138,-68,968,0,43,1,-4.06,8.13,306.19,0.89,0.00,-0.08,0.45,13,0,3,3,3
22907,107,-63,948,139,-71,968,-120,-58,-1,-4.19,8.13,306.25,0.89,-0.00,-0.08,0.45,13,0,3,3,3
22939,139,-111,979,141,-75,967,-100,-67,-12,-4.38,8.25,306.25,0.89,-0.00,-0.08,0.45,13,0,3,3,3
22971,158,-89,942,143,-76,967,-24,-58,-24,-4.50,8.44,306.31,0.89,-0.00,-0.08,0.45,13,0,3,3,3
23003,157,-83,931,144,-75,966,49,-14,-11,-4.44,8.44,306.31,0.89,-0.00,-0.08,0.45,13,0,3,3,3
23033,140,-56,928,144,-74,967,57,-6,-10,-4.31,8.44,306.31,0.89,-0.00,-0.08,0.45,13,0,3,3,3
23063,130,-54,926,144,-73,967,6,0,-20,-4.31,8.44,306.31,0.89,0.00,-0.08,0.45,13,0,3,3,3
23094,122,-64,923,144,-72,967,-7,2,-22,-4.25,8.44,306.38,0.89,0.00,-0.08,0.45,13,0,3,3,3
23122,136,-72,915,144,-73,967,-7,1,11,-4.31,8.44,306.38,0.89,0.00,-0.08,0.45,13,0,3,3,3
23157,136,-67,922,144,-73,967,-22,-5,-7,-4.31,8.44,306.38,0.89,-0.00,-0.08,0.45,13,0,3,3,3
23187,136,-82,929,145,-74,967,-19,-12,-18,-4.38,8.50,306.44,0.89,-0.00,-0.08,0.45,13,0,3,3,3
23217,139,-74,937,145,-74,967,2,-8,-10,-4.38,8.50,306.44,0.89,-0.00,-0.08,0.45,13,0,3,3,3
23246,139,-59,933,145,-74,967,-1,9,-5,-4.38,8.50,306.44,0.89,-0.00,-0.08,0.45,13,0,3,3,3
23276,136,-77,936,144,-74,967,-3,13,4,-4.38,8.44,306.44,0.89,-0.00,-0.08,0.45,13,0,3,3,3
23306,133,-80,933,144,-74,967,14,7,0,-4.38,8.44,306.44,0.89,-0.00,-0.08,0.45,13,0,3,3,3
23334,137,-59,924,144,-73,967,19,0,-7,-4.31,8.44,306.44,0.89,-0.00,-0.08,0.45,13,0,3,3,3
23363,133,-65,930,144,-73,967,13,-4,-3,-4.31,8.44,306.44,0.89,-0.00,-0.08,0.45,13,0,3,3,3
23395,135,-70,932,144,-73,967,7,-8,-1,-4.31,8.44,306.44,0.89,-0.00,-0.08,0.45,13,0,3,3,3
23426,139,-93,922,144,-73,967,-93,-27,9,-4.38,8.44,306.44,0.89,-0.00,-0.08,0.45,13,0,3,3,3
23456,141,-147,914,144,-76,966,-44,36,3,-4.50,8.44,306.44,0.89,-0.00,-0.08,0.45,13,0,3,3,3
23490,126,-96,952,142,-75,967,73,52,15,-4.44,8.31,306.38,0.89,-0.00,-0.08,0.45,13,0,3,3,3
23519,113,-31,939,141,-72,967,94,8,17,-4.25,8.31,306.38,0.89,-0.00,-0.08,0.45,13,0,3,3,3
23548,115,-28,931,142,-71,967,30,-40,-8,-4.19,8.31,306.31,0.89,0.00,-0.08,0.45,13,0,3,3,3
23578,128,-44,929,144,-70,967,-13,-60,-7,-4.19,8.44,306.31,0.89,0.00,-0.08,0.45,13,0,3,3,3
23608,147,-81,936,145,-71,967,-22,-43,5,-4.19,8.50,306.31,0.89,0.00,-0.08,0.45,13,0,3,3,3
23639,153,-87,934,146,-71,966,4,-8,16,-4.25,8.56,306.31,0.89,0.00,-0.08,0.45,13,0,3,3,3
23671,245,-170,916,146,-71,967,37,7,8,-4.19,8.56,306.31,0.89,0.00,-0.08,0.45,14,0,3,3,3
23703,86,16,929,142,-66,967,207,191,40,-3.94,8.31,306.25,0.89,0.00,-0.08,0.45,14,0,3,3,3
23735,94,-13,920,137,-63,968,63,100,57,-3.69,8.06,306.13,0.89,0.00,-0.08,0.45,14,0,3,3,3
23763,97,-3,947,136,-63,969,-34,17,-15,-3.69,7.94,306.13,0.89,0.00,-0.08,0.45,14,0,3,3,3
23795,83,-83,937,137,-65,968,-61,-50,-44,-3.81,8.00,306.19,0.89,0.00,-0.08,0.45,14,0,3,3,3
23827,196,-97,901,139,-66,968,-35,-38,13,-3.94,8.19,306.19,0.89,0.00,-0.08,0.45,14,0,3,3,3
23859,150,-87,923,138,-67,968,10,85,21,-3.94,8.06,306.13,0.89,0.00,-0.08,0.45,14,0,3,3,3
23888,113,-79,946,136,-66,968,38,52,21,-3.88,7.94,306.13,0.89,0.00,-0.08,0.45,14,0,3,3,3
23918,121,-37,932,135,-65,969,32,-2,-24,-3.81,7.94,306.13,0.89,0.00,-0.08,0.45,14,0,3,3,3
23949,125,-30,927,136,-64,968,-3,-34,-14,-3.81,8.00,306.19,0.89,0.00,-0.08,0.45,14,0,3,3,3
23977,104,-57,942,137,-65,968,-25,-84,-20,-3.81,8.13,306.25,0.89,0.00,-0.08,0.45,14,0,3,3,3
24011,144,-55,930,141,-66,968,-44,-97,-27,-3.88,8.25,306.25,0.89,0.00,-0.08,0.45,14,0,3,3,3
24043,105,-81,965,144,-67,967,-50,-94,-58,-3.94,8.44,306.38,0.89,0.00,-0.08,0.45,14,0,3,3,3
24072,149,-184,887,147,-68,967,-17,-119,-30,-4.00,8.63,306.44,0.89,0.00,-0.08,0.45,14,0,3,3,3
24101,149,-70,933,149,-67,966,51,-46,-21,-3.94,8.75,306.44,0.89,0.00,-0.08,0.45,14,0,3,3,3
24131,160,-65,911,150,-65,966,47,6,1,-3.88,8.81,306.44,0.89,0.00,-0.08,0.45,14,0,3,3,3
24161,127,-42,940,149,-64,967,38,40,-7,-3.75,8.75,306.44,0.89,0.01,-0.08,0.45,14,0,3,3,3
24194,132,-30,909,149,-64,967,-28,-20,10,-3.75,8.75,306.38,0.89,0.01,-0.08,0.45,14,0,3,3,3
24222,147,-65,913,150,-66,966,-63,-15,7,-3.88,8.75,306.38,0.89,0.00,-0.08,0.45,14,0,3,3,3
24253,135,-110,938,150,-67,966,-50,-9,17,-4.00,8.75,306.38,0.89,0.00,-0.08,0.45,14,0,3,3,3
24283,158,-88,950,150,-68,966,8,-26,23,-4.00,8.81,306.31,0.89,0.00,-0.08,0.45,14,0,3,3,3
24311,131,-71,935,151,-67,966,32,-37,-12,-3.94,8.88,306.31,0.89,0.00,-0.08,0.45,14,0,3,3,3
24344,154,-76,933,153,-68,966,-36,-89,-15,-4.00,9.00,306.31,0.89,0.00,-0.09,0.45,14,0,3,3,3
24376,143,-62,897,156,-68,965,-13,-63,-20,-4.06,9.13,306.31,0.89,0.00,-0.09,0.45,14,0,3,3,3
24408,199,-56,917,158,-68,965,-6,-42,23,-4.06,9.25,306.31,0.89,0.01,-0.09,0.45,14,0,3,3,3
24438,148,-114,942,158,-69,965,-45,4,19,-4.06,9.25,306.25,0.89,0.00,-0.09,0.45,14,0,3,3,3
24467,116,-31,919,158,-70,965,10,7,44,-4.13,9.25,306.19,0.89,0.00,-0.09,0.45,14,0,3,3,3
24499,143,0,934,159,-70,965,-35,-59,21,-4.19,9.31,306.13,0.89,0.00,-0.09,0.45,14,0,3,3,3
24531,191,-83,900,161,-73,964,-123,-72,6,-4.38,9.50,306.19,0.89,0.00,-0.09,0.45,14,0,3,3,3
24562,166,-84,956,163,-77,963,-99,-15,-21,-4.56,9.56,306.25,0.89,0.00,-0.09,0.45,14,0,3,3,3
24592,111,-62,968,163,-79,963,-62,-18,-37,-4.69,9.56,306.25,0.89,0.00,-0.09,0.45,14,0,3,3,3
24622,204,-125,887,164,-80,963,-14,17,-47,-4.75,9.63,306.31,0.89,0.00,-0.09,0.45,14,0,3,3,3
24652,92,-183,905,163,-80,963,34,47,12,-4.69,9.56,306.31,0.89,0.00,-0.09,0.45,14,0,3,3,3
24685,147,9,909,164,-75,963,173,-88,80,-4.44,9.63,306.06,0.89,0.00,-0.09,0.45,14,0,3,3,3
24714,156,-43,927,167,-72,963,24,-79,13,-4.31,9.81,306.06,0.89,0.01,-0.09,0.45,14,0,3,3,3
24744,148,-48,963,168,-73,963,-22,-43,18,-4.31,9.88,306.00,0.89,0.01,-0.09,0.45,14,0,3,3,3
24773,148,-61,906,169,-74,963,-35,-10,44,-4.38,9.88,306.00,0.89,0.01,-0.09,0.45,14,0,3,3,3
24804,178,-92,886,169,-76,962,-97,-40,26,-4.56,9.94,305.94,0.89,0.00,-0.10,0.45,14,0,3,3,3
24833,130,-61,908,171,-78,962,-92,-97,-3,-4.69,10.13,305.94,0.89,0.00,-0.10,0.45,14,0,3,3,3
24866,240,-33,917,174,-82,961,-95,-18,-67,-4.88,10.19,306.00,0.89,0.00,-0.10,0.45,14,0,3,3,3
24897,141,-73,977,172,-85,961,-129,81,16,-5.06,10.13,306.13,0.89,0.00,-0.10,0.45,14,0,3,3,3
24926,142,-119,947,170,-89,961,-97,67,3,-5.25,10.00,306.06,0.89,-0.00,-0.10,0.45,14,0,3,3,3
24955,192,-105,941,168,-91,961,-52,55,-49,-5.38,9.88,306.19,0.89,-0.00,-0.10,0.45,14,0,3,3,3
24986,214,-159,923,165,-91,962,38,119,36,-5.38,9.69,306.13,0.89,-0.00,-0.10,0.45,14,0,3,3,3
25016,238,-162,1034,161,-87,963,144,165,-57,-5.19,9.44,306.25,0.89,-0.00,-0.09,0.45,14,0,3,3,3
25043,144,-10,960,158,-84,964,120,134,-17,-5.00,9.25,306.25,0.89,-0.00,-0.09,0.45,14,0,3,3,3
25073,80,-61,921,155,-82,964,62,41,-50,-4.81,9.06,306.44,0.89,-0.00,-0.09,0.45,14,0,3,3,3
25104,210,-88,899,154,-80,965,70,15,64,-4.69,9.00,306.31,0.89,-0.00,-0.09,0.45,14,0,3,3,3
25134,155,-66,927,152,-77,965,120,81,16,-4.50,8.88,306.25,0.89,0.00,-0.09,0.45,14,0,3,3,3
25164,102,-39,931,151,-74,966,48,-5,-48,-4.31,8.88,306.31,0.89,0.00,-0.09,0.45,14,0,3,3,3
25198,147,-27,926,151,-73,966,-12,-7,-42,-4.31,8.88,306.50,0.89,0.00,-0.09,0.45,14,0,3,3,3
25227,108,-61,951,151,-74,965,-40,-16,-34,-4.38,8.88,306.56,0.89,0.00,-0.09,0.45,14,0,3,3,3
25256,166,-166,972,152,-73,965,36,-19,-100,-4.31,8.94,306.75,0.89,0.00,-0.09,0.45,14,0,3,3,3
25287,116,-56,950,153,-70,965,96,-38,-102,-4.13,9.00,306.94,0.89,0.00,-0.09,0.44,14,0,3,3,3
25317,156,-22,910,156,-67,965,51,-65,-55,-4.00,9.13,307.06,0.89,0.00,-0.09,0.44,14,0,3,3,3
25348,175,-19,921,156,-67,965,-18,5,-4,-4.00,9.19,307.06,0.89,0.00,-0.09,0.44,14,0,3,3,3
25380,164,-67,924,155,-69,965,-77,44,-78,-4.06,9.13,307.19,0.89,0.00,-0.09,0.44,14,0,3,3,3
25412,159,-92,900,154,-71,965,-72,68,-64,-4.19,9.00,307.31,0.89,0.00,-0.09,0.44,14,0,3,3,3
25443,123,-189,952,152,-71,966,30,54,105,-4.25,8.88,307.31,0.89,0.00,-0.09,0.44,14,0,3,3,3
25473,129,-95,941,151,-67,966,176,-27,-9,-4.00,8.88,307.13,0.89,0.00,-0.08,0.44,14,0,3,3,3
25504,124,31,912,154,-62,966,131,-100,-89,-3.69,9.00,307.25,0.89,0.01,-0.09,0.44,14,0,3,3,3
25536,120,-19,945,157,-61,965,17,-81,46,-3.56,9.25,307.19,0.89,0.01,-0.09,0.44,14,0,3,3,3
25567,111,-34,919,161,-61,965,-8,-97,162,-3.63,9.44,306.94,0.89,0.01,-0.09,0.44,14,0,3,3,3
25597,189,-61,922,162,-62,965,-8,-57,56,-3.63,9.50,306.81,0.89,0.01,-0.09,0.45,14,0,3,3,3
25626,171,-82,912,162,-62,965,-23,1,14,-3.69,9.56,306.81,0.89,0.01,-0.09,0.45,14,0,3,3,3
25657,128,-49,923,162,-62,964,-9,-27,-11,-3.69,9.56,306.81,0.89,0.01,-0.09,0.45,14,0,3,3,3
25688,193,-79,925,164,-62,964,13,-90,-129,-3.69,9.69,306.94,0.89,0.01,-0.09,0.44,14,0,3,3,3
25729,121,-50,918,168,-61,964,7,-61,-24,-3.63,9.88,307.13,0.89,0.01,-0.09,0.44,14,0,3,3,3
25758,144,-81,939,170,-61,963,26,-89,-103,-3.56,10.06,307.25,0.89,0.01,-0.09,0.44,14,0,3,3,3
25788,153,-17,899,173,-59,963,25,-53,-62,-3.50,10.19,307.44,0.89,0.01,-0.09,0.44,14,0,3,3,3
25819,198,-73,926,174,-59,963,-19,-8,161,-3.50,10.19,307.19,0.89,0.01,-0.09,0.44,14,0,3,3,3
25848,196,-109,946,173,-60,963,26,68,66,-3.50,10.06,307.13,0.89,0.01,-0.09,0.44,14,0,3,3,3
25881,148,10,894,167,-55,964,138,166,23,-3.25,9.81,307.13,0.89,0.01,-0.09,0.44,14,0,3,3,3
25911,108,47,919,165,-54,965,54,31,201,-3.19,9.69,306.75,0.89,0.01,-0.09,0.45,14,0,3,3,3
25940,166,-64,932,165,-55,965,-51,-22,107,-3.25,9.69,306.50,0.89,0.01,-0.09,0.45,14,0,3,3,3
25970,189,-52,930,164,-57,965,-55,51,57,-3.38,9.63,306.38,0.89,0.01,-0.09,0.45,14,0,3,3,3
26000,181,-113,946,161,-58,965,-6,151,-5,-3.44,9.38,306.31,0.89,0.01,-0.09,0.45,14,0,3,3,3
26030,98,-65,948,157,-57,966,15,63,-220,-3.38,9.19,306.63,0.89,0.01,-0.08,0.45,14,0,3,3,3
26062,169,-52,991,156,-56,966,49,27,-123,-3.31,9.13,306.88,0.89,0.01,-0.08,0.45,14,0,3,3,3
26093,78,-43,941,154,-54,966,27,48,-13,-3.19,9.06,306.94,0.89,0.01,-0.08,0.45,14,0,3,3,3
26123,98,-67,893,155,-54,966,-16,-51,-67,-3.19,9.06,307.00,0.89,0.01,-0.08,0.44,14,0,3,3,3
26152,116,-35,893,160,-54,966,5,-199,-64,-3.19,9.38,307.13,0.89,0.01,-0.09,0.44,14,0,3,3,3
26181,132,-42,904,167,-54,964,-31,-274,-19,-3.19,9.81,307.13,0.89,0.01,-0.09,0.44,14,0,3,3,3
26214,196,-99,926,176,-55,963,-45,-251,-140,-3.25,10.31,307.31,0.89,0.01,-0.09,0.44,14,0,3,3,3
26245,220,-102,945,182,-53,962,37,-144,-266,-3.19,10.69,307.75,0.89,0.02,-0.10,0.44,14,0,3,3,3
26274,222,-48,925,185,-49,961,76,-60,-440,-2.94,10.88,308.44,0.90,0.02,-0.10,0.43,14,0,3,3,3
26305,183,13,908,185,-45,961,62,44,-114,-2.69,10.88,308.81,0.90,0.02,-0.10,0.43,14,0,3,3,3
26335,64,19,839,183,-45,962,-7,60,236,-2.69,10.75,308.75,0.90,0.02,-0.09,0.43,14,0,3,3,3
26365,166,-45,909,180,-50,962,-145,80,133,-2.94,10.56,308.44,0.90,0.02,-0.09,0.43,14,0,3,3,3
26400,182,-57,959,177,-55,962,-189,97,-7,-3.25,10.44,308.38,0.90,0.01,-0.09,0.43,14,0,3,3,3
26430,160,-85,909,175,-61,962,-182,71,-61,-3.69,10.19,308.56,0.90,0.01,-0.09,0.43,14,0,3,3,3
26461,141,-155,1011,172,-65,963,-45,79,41,-3.75,10.06,308.69,0.90,0.01,-0.09,0.43,14,0,3,3,3
26490,149,-30,827,172,-61,963,27,-20,-218,-3.56,10.13,309.19,0.90,0.01,-0.09,0.43,14,0,3,3,3
26522,193,-76,962,174,-59,963,83,-66,127,-3.50,10.25,309.13,0.90,0.01,-0.09,0.43,14,0,3,3,3
26555,140,-52,979,176,-56,962,90,-98,64,-3.31,10.38,309.00,0.90,0.01,-0.09,0.43,14,0,3,3,3
26585,126,5,941,180,-55,962,50,-134,207,-3.25,10.56,308.75,0.90,0.01,-0.10,0.43,14,0,3,3,3
26614,151,-35,913,184,-57,961,-45,-157,339,-3.38,10.81,308.19,0.90,0.01,-0.10,0.43,14,0,3,3,3
26644,231,-154,882,189,-60,960,-88,-159,-97,-3.56,11.13,308.00,0.89,0.01,-0.10,0.44,14,0,3,3,3
26674,112,-65,930,189,-60,960,-91,76,-457,-3.56,11.13,308.75,0.90,0.01,-0.10,0.43,14,0,3,3,3
26703,195,-90,952,190,-62,959,-30,-59,9,-3.69,11.19,308.56,0.90,0.01,-0.10,0.43,14,0,3,3,3
26736,290,-98,960,191,-61,959,79,19,13,-3.63,11.25,308.63,0.90,0.01,-0.10,0.43,14,0,3,3,3
26766,192,-42,925,186,-58,960,112,212,215,-3.50,10.94,308.31,0.90,0.01,-0.10,0.43,14,0,3,3,3
26796,98,37,905,179,-57,962,59,178,231,-3.38,10.50,307.94,0.89,0.01,-0.10,0.44,14,0,3,3,3
26825,159,-26,926,176,-59,962,-37,51,158,-3.50,10.38,307.63,0.89,0.01,-0.09,0.44,14,0,3,3,3
26855,135,-73,906,175,-61,962,-63,5,149,-3.63,10.31,307.38,0.89,0.01,-0.09,0.44,14,0,3,3,3
26887,156,-65,924,176,-65,962,-116,-86,120,-3.88,10.38,307.13,0.89,0.01,-0.10,0.44,14,0,3,3,3
26917,200,-157,916,181,-68,961,-113,-154,-196,-4.06,10.63,307.25,0.89,0.01,-0.10,0.44,14,0,3,3,3
26948,224,-58,963,186,-68,960,5,-135,-222,-4.06,10.94,307.69,0.89,0.01,-0.10,0.44,14,0,3,3,3
26977,155,-99,902,189,-67,959,9,-108,-29,-4.00,11.13,307.81,0.89,0.01,-0.10,0.44,14,0,3,3,3
27006,195,-99,921,193,-66,959,66,-138,-42,-3.94,11.38,307.81,0.89,0.01,-0.10,0.44,14,0,3,3,3
27036,181,-48,922,197,-62,958,137,-129,-99,-3.69,11.63,307.94,0.89,0.02,-0.11,0.44,14,0,3,3,3
27069,226,-104,915,201,-58,957,69,-114,-106,-3.44,11.88,308.06,0.89,0.02,-0.11,0.43,14,0,3,3,3
27100,125,-33,838,204,-55,957,72,-74,-189,-3.25,12.00,308.38,0.90,0.02,-0.11,0.43,14,0,3,3,3
27128,203,-32,898,208,-52,956,40,-131,-97,-3.13,12.25,308.63,0.90,0.02,-0.11,0.43,14,0,3,3,3
27159,157,36,923,209,-50,956,18,-13,-281,-2.94,12.31,309.00,0.90,0.02,-0.11,0.43,14,0,3,3,3
27188,223,-99,940,211,-50,956,-123,-61,-297,-3.00,12.44,309.63,0.90,0.02,-0.11,0.42,14,0,3,3,3
27220,218,-92,990,213,-51,955,-11,-30,-50,-3.06,12.50,309.81,0.90,0.02,-0.11,0.42,14,0,3,3,3
27252,218,-36,985,213,-49,955,29,1,-186,-2.94,12.56,310.06,0.90,0.02,-0.11,0.42,14,0,3,3,3
27282,234,59,964,212,-49,956,-20,92,-31,-2.94,12.44,310.25,0.90,0.02,-0.11,0.42,14,0,3,3,3
27313,186,-42,869,207,-51,957,-116,172,-96,-3.06,12.19,310.44,0.90,0.02,-0.11,0.42,14,0,3,3,3
27342,204,-103,870,203,-54,957,-128,100,-117,-3.25,12.00,310.63,0.90,0.02,-0.11,0.41,14,0,3,3,3
27374,184,-94,939,202,-54,958,87,39,-326,-3.13,11.88,311.13,0.91,0.02,-0.11,0.41,14,0,3,3,3
27409,186,-96,874,202,-47,958,74,-10,-410,-2.81,11.88,311.88,0.91,0.02,-0.10,0.41,14,0,3,3,3
27438,153,-40,884,204,-43,958,31,-89,-478,-2.56,12.00,312.63,0.91,0.02,-0.11,0.40,14,0,3,3,3
27468,243,-19,951,207,-38,957,1,-39,-679,-2.31,12.19,313.75,0.91,0.02,-0.11,0.39,14,0,3,3,3
27497,125,-21,860,209,-36,957,-60,-79,-366,-2.19,12.31,314.69,0.92,0.02,-0.11,0.38,14,0,3,3,3
27528,261,-33,901,214,-34,956,-86,-146,-866,-2.06,12.63,315.94,0.92,0.02,-0.11,0.37,14,0,3,3,3
27560,190,-27,924,216,-31,956,10,21,-364,-1.81,12.69,316.88,0.92,0.03,-0.11,0.37,14,0,3,3,3
27590,58,-22,887,215,-30,956,48,-18,189,-1.75,12.69,316.88,0.92,0.03,-0.11,0.37,14,0,3,3,3
27620,128,-38,830,219,-34,955,89,-175,1252,-2.00,12.88,315.13,0.92,0.03,-0.11,0.38,14,0,3,3,3
27649,89,53,927,222,-35,954,13,-135,-20,-2.06,13.06,314.56,0.92,0.03,-0.11,0.38,14,0,3,3,3
27679,165,-4,794,226,-35,953,2,-143,342,-2.13,13.31,314.44,0.92,0.03,-0.11,0.38,14,0,3,3,3
27709,201,-26,913,228,-36,952,37,-69,73,-2.19,13.50,314.00,0.91,0.03,-0.12,0.39,14,0,3,3,3
27741,283,-77,958,230,-34,952,25,19,-290,-2.06,13.56,314.25,0.91,0.03,-0.12,0.39,14,0,3,3,3
27771,183,27,894,228,-32,953,14,62,-128,-1.94,13.44,314.69,0.92,0.03,-0.11,0.38,14,0,3,3,3
27801,146,39,950,228,-32,953,-71,-44,0,-1.94,13.44,314.75,0.92,0.03,-0.11,0.38,14,0,3,3,3
27831,176,-18,950,231,-35,952,-97,-100,25,-2.13,13.63,314.75,0.92,0.03,-0.12,0.38,14,0,3,3,3
27860,296,-116,915,233,-39,951,-77,-53,48,-2.31,13.75,314.75,0.92,0.03,-0.12,0.38,14,0,3,3,3
27893,244,-60,895,232,-41,951,-31,41,264,-2.44,13.69,314.38,0.92,0.03,-0.12,0.38,14,0,3,3,3
27925,274,-92,942,231,-42,952,50,51,74,-2.50,13.63,314.13,0.91,0.03,-0.12,0.39,14,0,3,3,3
27957,185,13,868,229,-38,952,114,70,-131,-2.31,13.50,314.19,0.91,0.03,-0.12,0.39,14,0,3,3,3
27986,251,-52,859,227,-36,953,32,42,-36,-2.19,13.38,314.31,0.92,0.03,-0.11,0.38,14,0,3,3,3
28018,284,-81,924,226,-34,953,62,64,-226,-2.00,13.31,314.56,0.92,0.03,-0.11,0.38,14,0,3,3,3
28047,167,88,870,224,-29,954,42,65,-83,-1.81,13.19,314.94,0.92,0.03,-0.11,0.38,14,0,3,3,3
28082,189,-5,905,224,-33,954,-104,-30,-108,-2.00,13.19,315.06,0.92,0.03,-0.11,0.38,14,0,3,3,3
28111,278,-80,908,225,-37,953,-135,-51,-28,-2.19,13.31,315.19,0.92,0.03,-0.11,0.38,14,0,3,3,3
28141,195,-23,933,226,-39,953,-86,-12,-8,-2.38,13.31,315.19,0.92,0.03,-0.12,0.38,14,0,3,3,3
28171,228,-109,933,227,-41,953,-41,-62,5,-2.50,13.38,315.19,0.92,0.02,-0.12,0.38,14,0,3,3,3
28200,256,-60,912,228,-40,952,47,-18,-89,-2.44,13.44,315.31,0.92,0.03,-0.12,0.38,14,0,3,3,3
28234,184,4,890,228,-37,953,94,54,-61,-2.25,13.44,315.38,0.92,0.03,-0.12,0.38,14,0,3,3,3
28264,136,-10,939,226,-36,953,25,16,52,-2.19,13.38,315.38,0.92,0.03,-0.11,0.38,14,0,3,3,3
28294,207,-36,898,228,-36,952,-32,-121,-21,-2.19,13.44,315.31,0.92,0.03,-0.12,0.38,14,0,3,3,3
28323,201,-42,907,232,-38,951,-44,-134,-8,-2.25,13.69,315.38,0.92,0.03,-0.12,0.38,14,0,3,3,3
28352,153,-186,820,237,-39,950,27,-150,174,-2.31,13.94,315.19,0.92,0.03,-0.12,0.38,14,0,3,3,3
28383,224,-56,924,240,-38,950,54,-75,31,-2.25,14.13,315.13,0.92,0.03,-0.12,0.38,14,0,3,3,3
28414,261,-96,923,240,-34,950,150,11,41,-2.06,14.13,315.06,0.92,0.03,-0.12,0.38,14,0,3,3,3
28444,240,-4,927,238,-29,950,185,92,2,-1.75,14.06,314.94,0.92,0.03,-0.12,0.38,14,0,3,3,3
28474,299,-40,917,233,-24,952,160,177,-37,-1.44,13.75,314.94,0.92,0.03,-0.12,0.38,14,0,3,3,3
28503,200,20,907,227,-22,953,46,196,41,-1.31,13.44,314.88,0.92,0.03,-0.11,0.38,14,0,3,3,3
28533,178,-15,900,222,-21,954,24,179,67,-1.25,13.06,314.75,0.92,0.03,-0.11,0.38,14,0,3,3,3
28566,178,-33,911,218,-23,955,-58,117,86,-1.38,12.81,314.63,0.92,0.03,-0.11,0.38,14,0,3,3,3
28595,206,-62,919,216,-25,956,-53,32,123,-1.50,12.69,314.50,0.92,0.03,-0.11,0.38,14,0,3,3,3
28624,161,-32,932,215,-28,956,-90,-22,81,-1.69,12.69,314.38,0.92,0.03,-0.11,0.39,14,0,3,3,3
28653,153,18,945,216,-32,955,-113,-73,7,-1.88,12.75,314.31,0.92,0.03,-0.11,0.39,14,0,3,3,3
28684,255,-156,967,221,-35,954,-71,-156,-63,-2.13,13.00,314.31,0.92,0.03,-0.11,0.39,14,0,3,3,3
28713,330,-46,851,222,-35,954,-44,53,-109,-2.13,13.06,314.56,0.92,0.03,-0.11,0.38,14,0,3,3,3
28746,177,-37,923,218,-37,955,-21,147,92,-2.19,12.81,314.50,0.92,0.03,-0.11,0.38,14,0,3,3,3
28778,185,-24,931,215,-37,956,-18,58,2,-2.25,12.63,314.44,0.92,0.02,-0.11,0.38,14,0,3,3,3
28810,206,-23,923,214,-39,956,-76,29,-37,-2.31,12.63,314.50,0.92,0.02,-0.11,0.38,14,0,3,3,3
28838,143,-40,923,213,-41,956,-101,-11,12,-2.50,12.56,314.50,0.92,0.02,-0.11,0.38,14,0,3,3,3
28870,209,-116,916,216,-44,955,-51,-100,-77,-2.63,12.69,314.63,0.92,0.02,-0.11,0.38,14,0,3,3,3
28902,194,-1,881,220,-44,954,-90,-168,-47,-2.69,13.06,314.75,0.92,0.02,-0.11,0.38,14,0,3,3,3
28934,219,-76,939,225,-47,953,-30,-212,10,-2.81,13.44,314.75,0.92,0.02,-0.12,0.38,14,0,3,3,3
28964,258,-84,903,231,-47,951,20,-126,-85,-2.81,13.69,314.88,0.92,0.02,-0.12,0.38,14,0,3,3,3
28994,214,-36,955,234,-46,950,-15,-98,-26,-2.75,13.88,314.94,0.92,0.02,-0.12,0.38,14,0,3,3,3
29025,246,-75,925,237,-46,950,0,-79,-78,-2.75,14.06,315.06,0.92,0.02,-0.12,0.38,14,0,3,3,3
29053,227,-49,905,239,-44,950,52,-11,-35,-2.63,14.06,315.19,0.92,0.03,-0.12,0.38,14,0,3,3,3
29088,231,-78,913,238,-42,950,65,16,61,-2.56,14.06,315.06,0.92,0.03,-0.12,0.38,14,0,3,3,3
29117,152,-24,876,237,-39,950,116,40,-36,-2.38,14.00,315.06,0.92,0.03,-0.12,0.38,14,0,3,3,3
29147,220,-32,915,237,-35,950,153,35,-35,-2.13,14.00,315.06,0.92,0.03,-0.12,0.38,14,0,3,3,3
29176,165,0,916,236,-33,951,87,-3,26,-1.94,13.94,315.06,0.92,0.03,-0.12,0.38,14,0,3,3,3
29206,214,-29,926,237,-30,950,46,-29,24,-1.81,14.00,315.00,0.92,0.03,-0.12,0.38,14,0,3,3,3
29239,190,-43,884,238,-30,950,3,-47,50,-1.81,14.06,314.94,0.92,0.03,-0.12,0.38,14,0,3,3,3
29270,243,-43,904,240,-30,950,19,-92,-5,-1.81,14.19,314.88,0.92,0.03,-0.12,0.38,14,0,3,3,3
29299,294,-44,862,242,-29,949,36,-27,18,-1.75,14.31,314.88,0.92,0.03,-0.12,0.38,14,0,3,3,3
29329,242,-53,927,241,-28,950,47,98,89,-1.69,14.19,314.69,0.92,0.03,-0.12,0.38,14,0,3,3,3
29360,217,-15,923,237,-27,951,59,113,25,-1.63,14.00,314.63,0.92,0.03,-0.12,0.38,14,0,3,3,3
29388,248,-25,913,234,-26,951,30,86,-20,-1.56,13.81,314.63,0.92,0.03,-0.12,0.38,14,0,3,3,3
29421,148,-14,909,232,-25,952,6,72,-13,-1.50,13.63,314.63,0.92,0.03,-0.12,0.38,14,0,3,3,3
29451,234,-106,914,233,-26,952,-6,-93,-2,-1.56,13.75,314.56,0.92,0.03,-0.12,0.38,14,0,3,3,3
29481,238,-32,913,235,-25,951,14,-63,-18,-1.50,13.88,314.56,0.92,0.03,-0.12,0.38,14,0,3,3,3
29513,220,-66,927,234,-26,951,-37,90,98,-1.56,13.81,314.50,0.92,0.03,-0.12,0.38,14,0,3,3,3
29543,214,-70,914,232,-27,952,-1,34,4,-1.63,13.69,314.44,0.92,0.03,-0.12,0.38,14,0,3,3,3
29578,202,-23,910,232,-26,952,42,-23,12,-1.56,13.69,314.44,0.92,0.03,-0.12,0.38,14,0,3,3,3
29606,216,-45,933,234,-25,951,43,-109,7,-1.50,13.88,314.38,0.92,0.03,-0.12,0.38,14,0,3,3,3
29638,253,-102,936,238,-24,950,60,-84,84,-1.44,14.06,314.31,0.91,0.04,-0.12,0.39,14,0,3,3,3
29668,227,-47,922,239,-24,950,37,-31,168,-1.44,14.13,314.00,0.91,0.04,-0.12,0.39,14,0,3,3,3
29698,243,-72,913,240,-24,950,73,-14,77,-1.38,14.13,313.75,0.91,0.04,-0.12,0.39,14,0,3,3,3
29728,147,-5,903,240,-22,950,101,-26,87,-1.25,14.19,313.56,0.91,0.04,-0.12,0.39,14,0,3,3,3
29760,162,85,932,245,-18,949,99,-201,81,-1.06,14.50,313.38,0.91,0.04,-0.12,0.39,14,0,3,3,3
29790,318,-1,865,250,-18,947,7,-112,41,-1.06,14.75,313.19,0.91,0.04,-0.12,0.39,14,0,3,3,3
29819,313,-60,909,250,-18,947,33,75,-19,-1.06,14.75,313.19,0.91,0.04,-0.12,0.39,14,0,3,3,3
29849,214,-5,864,245,-16,949,32,149,77,-1.00,14.50,313.19,0.91,0.04,-0.12,0.39,14,0,3,3,3
29879,237,3,922,242,-18,949,-24,134,318,-1.13,14.25,312.69,0.91,0.04,-0.12,0.40,14,0,3,3,3
29908,235,-81,950,238,-20,950,10,109,80,-1.25,14.00,312.44,0.91,0.04,-0.12,0.40,14,0,3,3,3
29942,181,31,921,234,-18,951,72,88,-147,-1.06,13.81,312.63,0.91,0.04,-0.11,0.40,14,0,3,3,3
29972,235,-2,902,233,-16,952,56,45,-93,-0.94,13.69,312.69,0.91,0.04,-0.11,0.40,14,0,3,3,3
30001,313,-54,913,231,-13,952,43,75,-136,-0.81,13.63,312.94,0.91,0.04,-0.11,0.40,14,0,3,3,3
30031,185,-21,905,226,-11,953,33,157,-27,-0.69,13.38,313.06,0.91,0.04,-0.11,0.40,14,0,3,3,3
30060,180,36,937,225,-12,954,-38,-16,-14,-0.69,13.25,313.19,0.91,0.04,-0.11,0.39,14,0,3,3,3
30094,220,-33,957,226,-15,954,-92,14,78,-0.88,13.31,313.06,0.91,0.04,-0.11,0.40,14,0,3,3,3
30125,206,-38,943,225,-16,954,-57,-28,-182,-1.00,13.31,313.25,0.91,0.04,-0.11,0.39,14,0,3,3,3
30153,192,-25,924,228,-17,953,-22,-104,-1,-1.00,13.44,313.38,0.91,0.04,-0.11,0.39,14,0,3,3,3
30184,227,-36,941,233,-17,952,-14,-207,-172,-1.00,13.75,313.56,0.91,0.04,-0.11,0.39,14,0,3,3,3
30214,266,-23,928,239,-16,950,-1,-149,-191,-0.94,14.13,313.94,0.91,0.04,-0.12,0.39,14,0,3,3,3
30243,314,-148,688,242,-13,950,49,-92,-270,-0.81,14.25,314.31,0.91,0.04,-0.12,0.38,14,0,3,3,3
30276,224,60,938,246,-5,949,112,-150,-700,-0.31,14.50,315.44,0.92,0.05,-0.12,0.38,14,0,3,3,3
30305,208,20,842,251,0,947,37,-154,-406,0.00,14.81,316.31,0.92,0.05,-0.12,0.37,14,0,3,3,3
30337,227,-5,879,254,5,947,53,-84,-610,0.31,15.00,317.25,0.92,0.05,-0.12,0.36,14,0,3,3,3
30368,220,-30,851,256,11,946,13,-57,-598,0.69,15.13,318.38,0.93,0.05,-0.12,0.35,14,0,3,3,3
30398,176,-42,820,257,14,946,26,-71,-94,0.88,15.19,318.94,0.93,0.05,-0.12,0.35,14,0,3,3,3
30432,241,4,906,261,15,944,129,-162,417,0.88,15.56,318.25,0.93,0.06,-0.12,0.35,14,0,3,3,3
30461,307,-69,893,265,15,943,158,-31,589,0.88,15.69,317.19,0.92,0.06,-0.12,0.36,14,0,3,3,3
30492,265,43,886,265,16,943,154,55,330,1.00,15.69,316.38,0.92,0.06,-0.12,0.37,14,0,3,3,3
30523,294,68,1006,262,14,944,18,108,476,0.88,15.50,315.56,0.92,0.06,-0.12,0.37,14,0,3,3,3
30553,289,-56,929,258,11,946,-6,192,410,0.63,15.25,314.81,0.92,0.06,-0.12,0.38,14,0,3,3,3
30582,307,-21,931,253,10,947,74,255,340,0.56,14.81,314.19,0.91,0.05,-0.12,0.39,14,0,3,3,3
30615,253,-31,886,243,12,949,145,243,-62,0.75,14.38,314.00,0.91,0.05,-0.11,0.39,14,0,3,3,3
30644,247,47,894,237,20,951,135,162,-566,1.19,14.00,314.75,0.92,0.06,-0.11,0.38,14,0,3,3,3
30674,173,45,864,232,25,952,-6,150,-421,1.50,13.69,315.63,0.92,0.06,-0.11,0.37,14,0,3,3,3
30704,135,24,836,229,28,953,-31,-6,-380,1.69,13.50,316.38,0.92,0.06,-0.10,0.37,14,0,3,3,3
30734,222,76,941,230,28,952,-100,-89,-129,1.63,13.63,316.81,0.92,0.06,-0.11,0.36,14,0,3,3,3
30766,204,-39,902,233,23,952,-110,-41,108,1.38,13.75,316.69,0.92,0.06,-0.11,0.37,14,0,3,3,3
30795,206,-8,955,235,21,951,-2,-86,156,1.25,13.88,316.44,0.92,0.06,-0.11,0.37,14,0,3,3,3
30825,273,3,945,237,21,951,36,-33,210,1.25,14.00,316.13,0.92,0.06,-0.11,0.37,14,0,3,3,3
30855,243,6,922,236,21,951,-8,58,-147,1.25,13.94,316.13,0.92,0.06,-0.11,0.37,14,0,3,3,3
30884,190,-16,912,235,21,951,50,0,-26,1.31,13.88,316.19,0.92,0.06,-0.11,0.37,14,0,3,3,3
30914,200,56,892,235,24,951,15,19,-171,1.44,13.88,316.38,0.92,0.06,-0.11,0.37,14,0,3,3,3
30947,229,29,855,233,24,952,-59,76,-225,1.50,13.75,316.81,0.92,0.06,-0.11,0.36,14,0,3,3,3
30978,205,-22,844,230,23,952,-56,115,-32,1.38,13.56,317.00,0.92,0.05,-0.11,0.36,14,0,3,3,3
31007,214,42,898,227,23,953,8,85,-19,1.38,13.38,317.06,0.92,0.05,-0.10,0.36,14,0,3,3,3
31037,228,17,950,224,22,954,-7,107,237,1.31,13.19,316.81,0.92,0.05,-0.10,0.37,14,0,3,3,3
31066,205,-41,921,221,20,955,36,115,434,1.19,13.00,316.06,0.92,0.05,-0.10,0.37,14,0,3,3,3
31095,146,51,934,220,19,955,59,3,259,1.13,12.94,315.44,0.92,0.05,-0.10,0.38,14,0,3,3,3
31128,164,90,990,222,19,954,-27,-116,-31,1.13,13.13,315.38,0.92,0.05,-0.10,0.38,14,0,3,3,3
31158,82,162,1048,228,16,953,-196,-244,-229,0.94,13.44,315.69,0.92,0.05,-0.11,0.37,14,0,3,3,3
31187,133,67,961,239,7,950,-476,-453,-218,0.38,14.13,316.25,0.92,0.05,-0.11,0.37,14,0,3,3,3
31217,160,-136,973,256,-8,946,-496,-611,29,-0.50,15.19,316.44,0.92,0.04,-0.12,0.37,14,0,3,3,3
31247,363,-172,846,275,-17,941,-232,-589,-197,-1.00,16.25,316.69,0.92,0.04,-0.14,0.36,14,0,3,3,3
31280,392,-101,829,289,-17,936,11,-418,-208,-1.00,17.19,317.06,0.92,0.05,-0.14,0.36,14,0,3,3,3
31308,336,-11,828,298,-12,934,120,-218,-141,-0.75,17.69,317.38,0.92,0.05,-0.15,0.36,14,0,3,3,3
31339,280,23,857,301,-9,933,91,-72,-26,-0.50,17.88,317.44,0.92,0.05,-0.15,0.36,14,0,3,3,3
31369,269,27,865,302,-8,932,17,4,67,-0.44,17.94,317.38,0.92,0.05,-0.15,0.36,14,0,3,3,3
31398,260,18,885,301,-10,933,-66,12,117,-0.63,17.88,317.19,0.92,0.05,-0.15,0.36,14,0,3,3,3
31428,239,-1,895,302,-14,932,-130,-29,87,-0.88,17.88,317.06,0.92,0.05,-0.15,0.36,14,0,3,3,3
31461,280,-38,888,303,-19,932,-131,-79,101,-1.19,18.00,316.88,0.92,0.05,-0.15,0.36,14,0,3,3,3
31493,301,-26,885,306,-23,931,-103,-91,81,-1.44,18.19,316.75,0.92,0.05,-0.15,0.36,14,0,3,3,3
31524,312,-26,878,308,-27,930,-105,-54,63,-1.63,18.31,316.69,0.92,0.05,-0.15,0.36,14,0,3,3,3
31553,303,-26,865,309,-31,930,-129,14,63,-1.94,18.31,316.63,0.92,0.04,-0.15,0.36,14,0,3,3,3
31585,269,-39,869,307,-36,930,-152,83,142,-2.25,18.25,316.44,0.92,0.04,-0.15,0.37,14,0,3,3,3
31617,259,-76,915,303,-43,931,-70,70,473,-2.81,18.00,315.63,0.91,0.04,-0.15,0.37,14,0,3,3,3
31648,244,-74,898,300,-51,932,-65,61,341,-3.13,17.81,315.00,0.91,0.03,-0.15,0.38,14,0,3,3,3
31678,125,-154,963,299,-54,932,-65,-62,273,-3.44,17.81,314.50,0.91,0.03,-0.15,0.38,14,0,3,3,3
31708,253,-168,920,302,-58,930,83,-196,279,-3.56,18.06,313.94,0.91,0.03,-0.16,0.39,14,0,3,3,3
31738,306,-103,871,308,-56,929,232,-160,257,-3.38,18.38,313.44,0.91,0.04,-0.16,0.39,14,0,3,3,3
31768,317,8,850,311,-51,928,288,-53,415,-3.06,18.50,312.69,0.90,0.04,-0.16,0.40,14,0,3,3,3
31802,321,-7,866,310,-47,928,182,34,378,-2.94,18.44,311.88,0.90,0.04,-0.16,0.40,14,0,3,3,3
31832,313,-27,879,307,-48,929,87,101,365,-2.94,18.25,311.19,0.90,0.04,-0.16,0.41,14,0,3,3,3
31861,322,0,927,302,-49,931,66,196,359,-3.00,17.94,310.56,0.90,0.04,-0.15,0.41,14,0,3,3,3
31891,282,8,956,293,-51,934,57,307,449,-3.13,17.38,309.75,0.89,0.04,-0.15,0.42,14,0,3,3,3
31921,326,-54,879,279,-54,938,86,497,648,-3.31,16.56,308.69,0.89,0.04,-0.14,0.43,14,0,3,3,3
31953,333,-44,877,259,-59,943,46,691,686,-3.56,15.31,307.31,0.89,0.03,-0.13,0.44,14,0,3,3,3
31985,191,-86,993,234,-63,950,28,801,717,-3.75,13.81,306.19,0.88,0.03,-0.12,0.45,14,0,3,3,3
32014,108,-194,970,209,-66,955,141,738,938,-3.94,12.31,304.56,0.88,0.02,-0.11,0.46,14,0,3,3,3
32046,41,-156,962,189,-64,960,287,554,732,-3.81,11.13,303.19,0.87,0.02,-0.10,0.48,14,0,3,3,3
32077,11,-43,969,176,-57,962,352,306,651,-3.44,10.31,301.88,0.87,0.02,-0.09,0.48,14,0,3,3,3
32106,82,-65,944,170,-50,964,356,76,624,-2.81,9.94,300.31,0.86,0.02,-0.09,0.50,14,0,3,3,3
32141,205,90,760,169,-42,964,187,-29,459,-2.50,9.94,299.31,0.86,0.02,-0.09,0.50,14,0,3,3,3
32171,18,21,948,170,-44,964,21,-83,759,-2.63,10.00,298.00,0.85,0.03,-0.09,0.51,14,0,3,3,3
32201,147,-77,967,172,-49,964,-49,-121,840,-2.94,10.13,296.63,0.85,0.02,-0.09,0.52,14,0,3,3,3
32231,231,-130,998,174,-53,963,-45,-123,567,-3.25,10.25,295.38,0.84,0.02,-0.09,0.53,14,0,3,3,3
32261,155,-115,938,180,-56,962,34,-198,118,-3.31,10.56,295.00,0.84,0.03,-0.09,0.53,14,0,3,3,3
32294,213,32,851,187,-56,960,39,-298,345,-3.31,11.00,294.50,0.84,0.03,-0.10,0.54,14,0,3,3,3
32324,321,6,905,195,-59,959,36,-288,653,-3.56,11.50,293.13,0.83,0.03,-0.10,0.55,14,0,3,3,3
32353,290,-94,901,200,-60,958,116,-112,553,-3.63,11.75,292.06,0.82,0.03,-0.10,0.56,14,0,3,3,3
32382,196,-121,869,201,-57,958,184,-37,215,-3.44,11.81,291.50,0.82,0.03,-0.10,0.56,14,0,3,3,3
32412,234,-128,970,201,-52,958,250,0,300,-3.13,11.81,291.00,0.82,0.04,-0.10,0.56,14,0,3,3,3
32442,198,-133,961,200,-48,958,289,10,229,-2.69,11.75,290.44,0.82,0.04,-0.10,0.57,14,0,3,3,3
32475,239,-40,886,200,-38,959,257,-21,149,-2.25,11.75,290.06,0.82,0.04,-0.10,0.57,14,0,3,3,3
32503,257,-16,883,200,-33,959,162,-5,143,-1.94,11.81,289.81,0.81,0.05,-0.09,0.57,14,0,3,3,3
32533,263,-67,848,199,-31,959,69,39,286,-1.88,11.75,289.38,0.81,0.05,-0.09,0.57,14,0,3,3,3
32563,333,-90,867,196,-32,960,-4,152,212,-1.94,11.50,288.88,0.81,0.04,-0.09,0.58,14,0,3,3,3
32592,298,-35,843,191,-34,961,-89,264,167,-2.06,11.06,288.63,0.81,0.04,-0.09,0.58,14,0,3,3,3
32624,314,-33,874,179,-41,963,-161,342,295,-2.44,10.50,288.25,0.81,0.04,-0.09,0.58,14,0,3,3,3
32654,306,-32,890,166,-49,965,-195,399,446,-2.88,9.75,287.56,0.80,0.03,-0.08,0.59,14,0,3,3,3
32685,234,-13,833,154,-57,966,-224,393,419,-3.38,9.00,286.81,0.80,0.02,-0.08,0.59,14,0,3,3,3
32713,272,-40,848,141,-67,968,-227,369,686,-4.00,8.25,285.69,0.79,0.02,-0.08,0.60,14,0,3,3,3
32744,301,-17,891,132,-74,968,-251,395,378,-4.50,7.50,284.88,0.79,0.01,-0.08,0.61,14,0,3,3,3
32776,217,-7,929,114,-86,970,-263,420,449,-5.06,6.69,284.19,0.79,0.00,-0.07,0.61,14,0,3,3,3
32805,161,-24,983,100,-97,970,-289,418,595,-5.69,5.81,283.31,0.78,-0.01,-0.07,0.62,14,0,3,3,3
32835,108,-57,949,84,-108,970,-272,403,914,-6.31,4.94,281.88,0.77,-0.02,-0.07,0.63,14,0,3,3,3
32865,61,-114,934,69,-118,970,-235,343,1185,-6.94,4.06,280.00,0.76,-0.02,-0.07,0.64,14,0,3,3,3
32894,67,-140,994,55,-127,970,-187,270,1170,-7.44,3.25,277.81,0.75,-0.03,-0.06,0.66,14,0,3,3,3
32924,13,-153,951,45,-132,970,-81,93,1253,-7.75,2.63,275.75,0.74,-0.03,-0.06,0.67,14,0,3,3,3
32958,62,-243,1007,40,-134,970,34,-32,1135,-7.88,2.38,273.75,0.73,-0.04,-0.06,0.68,14,0,3,3,3
32989,20,-245,995,37,-132,970,168,-74,1107,-7.75,2.19,271.63,0.72,-0.04,-0.06,0.70,14,0,3,3,3
33018,-14,-191,933,36,-126,971,272,-118,975,-7.38,2.13,269.75,0.70,-0.03,-0.06,0.71,14,0,3,3,3
33050,69,-211,995,36,-117,972,351,-127,1184,-6.88,2.13,267.63,0.69,-0.03,-0.06,0.72,14,0,3,3,3
33082,107,-211,1022,35,-106,974,407,-74,817,-6.19,2.06,265.88,0.68,-0.02,-0.05,0.73,14,0,3,3,3
33114,14,-77,992,35,-93,975,456,-17,767,-5.19,2.00,264.31,0.67,-0.02,-0.05,0.74,14,0,3,3,3
33145,-79,50,794,33,-80,976,426,-15,914,-4.44,1.88,262.69,0.66,-0.01,-0.04,0.75,14,0,3,3,3
33174,6,-26,828,31,-68,977,361,38,740,-3.81,1.75,261.19,0.65,-0.01,-0.04,0.76,14,0,3,3,3
33206,74,-66,932,26,-55,978,331,104,758,-3.19,1.50,259.75,0.64,-0.01,-0.03,0.77,14,0,3,3,3
33235,11,-7,938,22,-49,979,280,164,1037,-2.69,1.19,258.13,0.63,-0.01,-0.03,0.78,14,0,3,3,3
33265,-39,-47,961,15,-42,979,224,165,1002,-2.31,0.75,256.25,0.62,-0.01,-0.02,0.79,14,0,3,3,3
33299,0,-22,1042,8,-34,980,169,131,821,-2.00,0.44,254.63,0.61,-0.01,-0.02,0.80,14,0,3,3,3
33329,17,0,966,3,-30,980,114,112,1079,-1.75,0.19,252.88,0.59,-0.01,-0.01,0.80,14,0,3,3,3
33357,55,25,980,-2,-28,980,39,185,1408,-1.63,-0.13,250.50,0.58,-0.01,-0.01,0.82,14,0,3,3,3
33387,126,-21,950,-12,-29,980,-67,379,897,-1.69,-0.75,248.44,0.56,-0.01,-0.01,0.83,14,0,3,3,3
33417,-2,-32,948,-28,-32,979,-134,504,644,-1.88,-1.63,247.25,0.55,-0.02,-0.01,0.83,14,0,3,3,3
33449,-27,-61,1015,-44,-36,978,-157,484,518,-2.13,-2.56,246.19,0.55,-0.03,-0.00,0.84,14,0,3,3,3
33480,6,-69,988,-59,-40,978,-145,458,304,-2.38,-3.44,245.56,0.54,-0.04,-0.00,0.84,14,0,3,3,3
33509,-16,-113,1002,-73,-43,976,-112,472,209,-2.56,-4.31,245.13,0.54,-0.04,0.00,0.84,14,0,3,3,3
33540,-42,-116,1021,-88,-44,975,-26,441,305,-2.63,-5.13,244.56,0.53,-0.05,0.00,0.84,14,0,3,3,3
33568,-63,-124,952,-101,-42,974,86,373,242,-2.50,-5.88,244.13,0.53,-0.06,0.01,0.85,14,0,3,3,3
33599,-102,-130,904,-111,-37,973,198,294,176,-2.13,-6.50,243.81,0.53,-0.06,0.01,0.85,14,0,3,3,3
33631,-124,-80,926,-117,-29,973,269,166,84,-1.69,-6.88,243.63,0.53,-0.06,0.02,0.85,14,0,3,3,3
33660,-186,-80,894,-120,-19,973,291,31,70,-1.13,-7.00,243.56,0.53,-0.06,0.02,0.85,14,0,3,3,3
33690,-160,-33,940,-118,-10,973,276,-108,149,-0.63,-6.94,243.38,0.52,-0.05,0.03,0.85,14,0,3,3,3
33719,-134,2,950,-112,-3,974,190,-216,-36,-0.19,-6.56,243.38,0.52,-0.05,0.03,0.85,14,0,3,3,3
33750,-165,-24,917,-104,0,975,107,-286,-29,0.00,-6.06,243.50,0.53,-0.05,0.03,0.85,14,0,3,3,3
33781,-101,-7,926,-95,2,976,55,-300,58,0.13,-5.56,243.38,0.52,-0.04,0.03,0.85,14,0,3,3,3
33810,75,103,963,-93,-4,976,-342,160,78,-0.25,-5.44,244.00,0.53,-0.04,0.02,0.85,14,0,3,3,3
33840,-39,-94,888,-105,-17,974,-452,438,42,-1.00,-6.19,243.50,0.53,-0.05,0.02,0.85,14,0,3,3,3
33869,-166,-171,935,-117,-27,973,-259,343,97,-1.56,-6.88,243.25,0.52,-0.06,0.02,0.85,14,0,3,3,3
33899,-174,-146,911,-123,-30,972,-56,199,-60,-1.81,-7.31,243.25,0.52,-0.06,0.02,0.85,14,0,3,3,3
33931,-313,-94,854,-126,-30,971,44,-50,-247,-1.81,-7.38,243.50,0.53,-0.06,0.02,0.85,14,0,3,3,3
33960,-173,30,1071,-118,-29,973,48,-399,-132,-1.69,-6.88,243.75,0.53,-0.06,0.02,0.85,14,0,3,3,3
33990,-34,-47,988,-99,-30,975,8,-669,-278,-1.75,-5.81,244.19,0.53,-0.05,0.01,0.85,14,0,3,3,3
34021,-120,-210,894,-80,-29,976,135,-452,-1029,-1.69,-4.69,245.25,0.54,-0.04,0.01,0.84,14,0,3,3,3
34051,149,61,888,-79,-19,977,343,103,-236,-1.13,-4.63,245.50,0.54,-0.04,0.01,0.84,14,0,3,3,3
34080,46,95,956,-86,-13,976,206,265,-612,-0.75,-5.00,246.69,0.55,-0.04,0.02,0.83,14,0,3,3,3
34113,-55,10,932,-93,-12,976,22,264,-494,-0.69,-5.44,247.63,0.56,-0.04,0.02,0.83,14,0,3,3,3
34144,-133,79,821,-103,-14,975,-29,330,-831,-0.81,-6.00,248.81,0.56,-0.05,0.02,0.82,14,0,3,3,3
34173,-397,-82,974,-111,-21,974,-134,218,-908,-1.25,-6.50,250.50,0.58,-0.05,0.02,0.82,14,0,3,3,3
34205,-275,-62,941,-110,-26,974,-2,-110,-1016,-1.50,-6.44,252.13,0.59,-0.05,0.02,0.81,14,0,3,3,3
34236,-209,-43,899,-102,-27,974,142,-273,-1019,-1.56,-6.00,254.25,0.60,-0.05,0.02,0.80,14,0,3,3,3
34269,-158,-33,910,-92,-23,976,264,-374,-382,-1.19,-5.13,255.88,0.61,-0.04,0.02,0.79,14,0,3,3,3
34300,-46,66,887,-80,-15,977,289,-381,-346,-0.75,-4.44,256.50,0.62,-0.03,0.02,0.78,14,0,3,3,3
34329,0,88,920,-69,-9,978,197,-251,-503,-0.44,-3.88,257.44,0.63,-0.03,0.02,0.78,14,0,3,3,3
34361,-73,112,934,-61,-3,978,113,-153,-444,-0.19,-3.56,258.25,0.63,-0.03,0.02,0.78,14,0,3,3,3
34392,-108,194,913,-58,-3,978,-4,-161,-628,-0.25,-3.25,259.44,0.64,-0.02,0.02,0.77,14,0,3,3,3
34420,-105,169,890,-52,-10,979,-264,-182,-1336,-0.75,-2.94,261.56,0.65,-0.02,0.01,0.76,14,0,3,3,3
34449,-116,216,815,-46,-22,979,-349,-163,-1391,-1.25,-2.69,263.25,0.66,-0.03,0.01,0.75,14,0,3,3,3
34479,-115,183,856,-40,-39,979,-557,-164,-1581,-2.69,-2.19,266.88,0.69,-0.03,-0.00,0.73,14,0,3,3,3
34511,-109,88,1050,-31,-62,978,-818,-300,-1068,-4.13,-1.56,269.06,0.70,-0.04,-0.02,0.71,14,0,3,3,3
34542,-201,-219,975,-17,-88,976,-815,-396,-1094,-5.63,-0.69,270.88,0.71,-0.04,-0.03,0.70,14,0,3,3,3
34571,-174,-192,1021,0,-109,974,-492,-667,-1805,-6.69,0.56,273.13,0.72,-0.04,-0.04,0.69,14,0,3,3,3
34605,2,-166,1113,44,-123,971,-313,-816,-2858,-7.19,2.56,278.00,0.75,-0.03,-0.06,0.65,14,0,3,3,3
34635,-19,-271,1017,80,-124,969,-121,-874,-2246,-7.25,4.69,282.50,0.78,-0.02,-0.07,0.62,14,0,3,3,3
34664,12,-254,930,114,-117,966,128,-863,-1688,-6.88,6.69,285.63,0.79,-0.01,-0.08,0.60,14,0,3,3,3
34694,116,-305,975,144,-102,964,409,-773,-1337,-6.00,8.44,288.19,0.81,0.00,-0.09,0.58,14,0,3,3,3
34723,240,-328,1022,169,-78,962,673,-693,-1006,-4.63,9.88,289.94,0.82,0.02,-0.09,0.57,14,0,3,3,3
34756,205,-74,942,196,-46,959,852,-882,-1696,-2.75,11.50,292.13,0.83,0.04,-0.10,0.56,14,0,3,3,3
34788,407,-76,1144,228,-3,953,819,-996,-3044,-0.19,13.44,296.69,0.85,0.06,-0.10,0.52,14,0,3,3,3
34817,333,-67,625,253,49,946,925,-925,-3824,2.94,14.94,303.00,0.87,0.08,-0.10,0.47,14,0,3,3,3
34847,439,141,1015,273,110,935,1125,-914,-2862,6.75,16.13,309.06,0.89,0.11,-0.10,0.42,14,0,3,3,3
34877,523,163,777,288,158,923,1140,-645,-583,9.69,17.06,311.75,0.90,0.14,-0.10,0.40,14,0,3,3,3
34912,655,313,711,300,186,914,909,-26,396,12.00,17.88,310.88,0.89,0.16,-0.10,0.41,14,0,3,3,3
34942,651,229,595,295,216,909,982,231,-978,13.31,17.50,311.38,0.90,0.17,-0.09,0.40,14,0,3,3,3
34972,397,190,724,271,264,904,1008,510,-669,16.94,15.63,314.88,0.91,0.19,-0.07,0.38,14,0,3,3,3
35003,317,391,753,237,298,903,483,817,-2753,18.81,12.94,318.81,0.92,0.19,-0.05,0.34,14,0,3,3,3
35033,-29,311,685,194,316,907,128,571,401,19.25,11.19,320.00,0.92,0.19,-0.04,0.34,14,0,3,3,3
35066,-29,307,738,177,322,908,142,265,-1114,19.50,10.38,320.44,0.92,0.19,-0.03,0.33,14,0,3,3,3
35096,45,296,595,157,337,906,213,-38,-1734,20.38,9.25,323.50,0.93,0.19,-0.02,0.31,14,0,3,3,3
35126,41,230,752,137,350,905,67,-183,-2458,21.13,8.00,327.63,0.94,0.20,-0.02,0.27,14,0,3,3,3
35155,-108,291,829,127,363,902,203,-506,-1690,21.88,7.44,331.13,0.95,0.20,-0.02,0.24,14,0,3,3,3
35185,28,29,803,122,379,896,296,-825,-2445,22.88,7.13,335.31,0.96,0.21,-0.02,0.21,14,0,3,3,3
35215,418,467,960,105,410,884,1030,-76,-1708,24.88,6.13,339.06,0.96,0.22,-0.02,0.18,14,0,3,3,3
35249,13,811,861,79,441,871,828,36,-1743,26.81,4.63,342.31,0.96,0.24,-0.01,0.15,14,0,3,3,3
35277,-92,709,745,35,455,867,16,232,-3345,27.69,2.06,347.31,0.96,0.24,0.01,0.11,14,0,3,3,3
35307,-115,290,629,-13,445,873,-495,-14,-2657,27.00,-0.75,353.06,0.97,0.23,0.02,0.06,14,0,3,3,3
35337,-122,291,669,-47,430,879,-463,-307,-3699,26.06,-2.75,358.56,0.97,0.23,0.03,0.01,14,0,3,3,3
35367,-307,659,926,-86,407,887,-606,-675,-4017,24.63,-5.06,6.13,0.97,0.21,0.03,-0.05,14,0,3,3,3
35400,-304,297,911,-102,375,900,-830,-1122,-3473,22.56,-6.00,12.81,0.97,0.20,0.03,-0.11,14,0,3,3,3
35429,-201,393,869,-97,341,914,-796,-1462,-2663,20.44,-5.69,18.69,0.97,0.18,0.02,-0.16,14,0,3,3,3
35460,-187,479,871,-82,311,926,-773,-1555,-2892,18.50,-4.81,24.31,0.96,0.17,0.01,-0.21,14,0,3,3,3
35490,-143,401,753,-55,279,938,-958,-1896,-2343,16.56,-3.19,29.38,0.96,0.15,-0.01,-0.25,14,0,3,3,3
35520,-119,422,772,-17,245,949,-1026,-2055,-2862,14.50,-1.00,34.75,0.95,0.12,-0.03,-0.30,14,0,3,3,3
35554,-26,343,868,26,215,956,-995,-2082,-2059,12.69,1.56,39.69,0.93,0.10,-0.05,-0.34,14,0,3,3,3
35582,23,302,917,86,183,959,-1209,-2213,-381,10.81,5.06,41.81,0.93,0.06,-0.08,-0.36,14,0,3,3,3
35615,374,111,778,148,139,959,-1655,-1932,-250,7.25,9.81,43.94,0.92,0.03,-0.10,-0.37,14,0,3,3,3
35646,482,-192,911,202,91,955,-1447,-1570,502,5.44,11.88,43.75,0.92,-0.00,-0.12,-0.37,14,0,3,3,3
35676,485,-279,719,237,50,950,-1174,-789,-518,2.38,14.44,44.31,0.92,-0.03,-0.12,-0.37,14,0,3,3,3
35707,444,-123,806,256,22,946,-1004,-513,-678,0.88,15.38,45.75,0.91,-0.05,-0.13,-0.39,14,0,3,3,3
35739,351,-130,1021,268,-10,943,-888,-200,-184,-0.63,15.81,46.38,0.91,-0.06,-0.12,-0.39,14,0,3,3,3
35770,270,-173,907,272,-33,941,-765,-106,-177,-2.06,16.06,46.81,0.91,-0.07,-0.12,-0.39,14,0,3,3,3
35800,288,-240,886,274,-51,939,-612,-73,-365,-3.06,16.25,47.63,0.91,-0.08,-0.12,-0.40,14,0,3,3,3
35829,238,-172,911,279,-63,937,-445,-173,-239,-3.81,16.50,48.31,0.90,-0.09,-0.12,-0.40,14,0,3,3,3
35859,163,-60,911,284,-70,935,-360,-368,-107,-4.44,17.06,48.56,0.90,-0.10,-0.12,-0.41,14,0,3,3,3
35892,253,-95,938,302,-83,929,-422,-470,-280,-5.06,17.94,49.06,0.90,-0.10,-0.12,-0.41,14,0,3,3,3
35920,241,-67,875,318,-92,922,-432,-564,-287,-5.69,18.94,49.69,0.89,-0.11,-0.13,-0.41,14,0,3,3,3
35950,294,-99,888,336,-102,915,-488,-550,-479,-6.38,20.00,50.44,0.89,-0.12,-0.14,-0.42,14,0,3,3,3
35980,328,-212,917,351,-109,908,-427,-453,-526,-6.88,21.00,51.56,0.88,-0.13,-0.14,-0.43,14,0,3,3,3
36009,205,-192,844,365,-119,901,-415,-478,-86,-7.50,21.88,52.00,0.88,-0.14,-0.14,-0.43,14,0,3,3,3
36042,421,-256,791,381,-128,894,-338,-569,-214,-8.13,22.88,52.25,0.88,-0.15,-0.15,-0.43,14,0,3,3,3
36072,516,-217,905,396,-130,887,-207,-389,-399,-8.38,23.81,53.06,0.87,-0.15,-0.15,-0.44,14,0,3,3,3
36102,362,-145,884,404,-132,883,-116,-191,-180,-8.50,24.31,53.44,0.87,-0.16,-0.16,-0.44,14,0,3,3,3
36130,304,-161,739,408,-134,881,-122,-143,-26,-8.69,24.63,53.56,0.87,-0.16,-0.16,-0.44,14,0,3,3,3
36161,503,-278,828,411,-134,880,-42,21,-233,-8.69,24.75,53.94,0.87,-0.16,-0.16,-0.44,14,0,3,3,3
36193,353,-236,862,407,-131,882,58,218,-130,-8.44,24.50,54.31,0.87,-0.16,-0.16,-0.44,14,0,3,3,3
36222,281,-105,852,401,-127,885,109,225,-150,-8.13,24.13,54.50,0.87,-0.16,-0.16,-0.45,14,0,3,3,3
36252,303,-97,909,396,-123,888,50,168,-124,-7.88,23.81,54.75,0.87,-0.15,-0.15,-0.45,14,0,3,3,3
36281,339,-193,923,393,-121,890,24,93,-64,-7.75,23.63,54.88,0.87,-0.15,-0.15,-0.45,14,0,3,3,3
36312,228,-112,826,392,-120,890,51,-32,-29,-7.63,23.63,55.00,0.87,-0.15,-0.15,-0.45,14,0,3,3,3
36352,299,-140,876,397,-119,888,-68,-243,-57,-7.69,24.00,55.00,0.87,-0.15,-0.16,-0.45,14,0,3,3,3
36380,387,-131,862,405,-120,884,-78,-290,-66,-7.75,24.56,55.13,0.86,-0.15,-0.16,-0.45,14,0,3,3,3
36411,375,-140,835,412,-123,880,-154,-218,5,-8.00,25.00,55.13,0.86,-0.16,-0.16,-0.45,14,0,3,3,3
36441,420,-196,852,418,-127,877,-153,-122,-22,-8.31,25.31,55.25,0.86,-0.16,-0.16,-0.45,14,0,3,3,3
36471,359,-169,854,421,-133,875,-149,-77,45,-8.63,25.44,55.19,0.86,-0.16,-0.16,-0.45,14,0,3,3,3
36502,344,-195,832,422,-137,874,-201,-124,100,-9.06,25.56,55.13,0.86,-0.17,-0.16,-0.45,14,0,3,3,3
36534,417,-255,819,426,-144,870,-130,-87,-69,-9.38,25.75,55.13,0.86,-0.17,-0.16,-0.45,14,0,3,3,3
36563,415,-254,842,427,-145,870,-42,36,-89,-9.44,25.81,55.19,0.86,-0.17,-0.16,-0.45,14,0,3,3,3
36593,511,-215,904,424,-144,872,22,140,-160,-9.38,25.63,55.44,0.86,-0.17,-0.16,-0.45,14,0,3,3,3
36624,394,-280,786,419,-140,875,72,235,-98,-9.13,25.31,55.69,0.86,-0.17,-0.16,-0.45,14,0,3,3,3
36654,465,-336,801,411,-135,879,285,387,73,-8.75,24.75,55.69,0.86,-0.16,-0.16,-0.46,14,0,3,3,3
36686,306,-101,906,398,-127,886,374,478,124,-8.13,23.94,55.38,0.86,-0.16,-0.15,-0.45,14,0,3,3,3
36718,199,-38,888,387,-120,892,187,315,0,-7.69,23.25,55.25,0.87,-0.15,-0.15,-0.45,14,0,3,3,3
36750,209,-135,848,381,-118,895,77,145,79,-7.50,22.88,55.19,0.87,-0.15,-0.15,-0.45,14,0,3,3,3
36780,205,-78,892,381,-118,895,6,-67,129,-7.50,22.81,55.00,0.87,-0.15,-0.15,-0.45,14,0,3,3,3
36811,257,-104,879,386,-121,893,-120,-240,-42,-7.69,23.19,54.94,0.87,-0.15,-0.15,-0.45,14,0,3,3,3
36843,351,-179,837,396,-126,888,-145,-222,-12,-8.06,23.81,55.06,0.87,-0.15,-0.15,-0.45,14,0,3,3,3
36874,367,-230,900,402,-129,884,-98,-213,-15,-8.25,24.19,55.13,0.86,-0.16,-0.16,-0.45,14,0,3,3,3
36904,381,-202,835,406,-130,883,-58,-185,-26,-8.44,24.56,55.19,0.86,-0.16,-0.16,-0.45,14,0,3,3,3
36933,418,-217,831,411,-131,880,-61,-71,-83,-8.50,24.75,55.31,0.86,-0.16,-0.16,-0.45,14,0,3,3,3
36964,442,-276,857,411,-131,880,35,39,37,-8.50,24.75,55.31,0.86,-0.16,-0.16,-0.45,14,0,3,3,3
36995,359,-245,817,409,-129,881,117,51,9,-8.31,24.69,55.25,0.86,-0.16,-0.16,-0.45,14,0,3,3,3
37027,356,-130,842,408,-125,882,110,56,-59,-8.06,24.56,55.25,0.86,-0.16,-0.16,-0.45,14,0,3,3,3
37059,404,-220,888,406,-121,884,69,86,-195,-7.81,24.50,55.56,0.86,-0.16,-0.16,-0.45,14,0,3,3,3
37088,299,-183,886,405,-116,885,141,54,-103,-7.44,24.38,55.75,0.86,-0.15,-0.16,-0.46,14,0,3,3,3
37120,301,-102,873,405,-111,885,118,-25,-25,-7.19,24.38,55.81,0.86,-0.15,-0.16,-0.46,14,0,3,3,3
37151,394,-170,871,406,-109,885,21,-31,-119,-7.00,24.50,55.94,0.86,-0.15,-0.16,-0.46,14,0,3,3,3
37183,352,-127,883,407,-108,885,7,3,48,-7.00,24.50,56.00,0.86,-0.15,-0.16,-0.46,14,0,3,3,3
37215,297,-88,840,407,-109,885,-47,-45,30,-7.06,24.56,55.94,0.86,-0.15,-0.16,-0.46,14,0,3,3,3
37244,356,-175,847,409,-112,883,-119,-65,-61,-7.25,24.75,56.06,0.86,-0.15,-0.16,-0.46,14,0,3,3,3
37275,435,-137,877,410,-115,882,-106,21,20,-7.44,24.75,56.13,0.86,-0.15,-0.16,-0.46,14,0,3,3,3
37306,314,-103,840,410,-118,882,-162,9,-15,-7.75,24.69,56.19,0.86,-0.16,-0.16,-0.46,14,0,3,3,3
37338,284,-216,795,410,-124,881,-205,11,-86,-8.00,24.69,56.38,0.86,-0.16,-0.16,-0.46,14,0,3,3,3
37368,224,-262,683,410,-127,881,-71,-7,-69,-8.19,24.75,56.56,0.86,-0.16,-0.16,-0.46,14,0,3,3,3
37397,208,-272,725,410,-124,881,143,17,-13,-8.00,24.75,56.63,0.86,-0.16,-0.16,-0.46,14,0,3,3,3
37428,177,-150,759,407,-118,884,297,179,112,-7.56,24.50,56.44,0.86,-0.16,-0.16,-0.46,14,0,3,3,3
37457,1299,42,814,401,-111,887,175,772,-980,-6.75,23.75,57.19,0.86,-0.15,-0.15,-0.47,14,0,3,3,3
37487,602,-295,800,348,-103,910,272,1979,939,-6.44,20.75,56.75,0.86,-0.13,-0.13,-0.47,14,0,3,3,3
37520,175,-368,636,279,-93,935,520,2365,-164,-5.69,16.50,56.25,0.87,-0.11,-0.10,-0.47,14,0,3,3,3
37551,87,-305,779,213,-69,954,709,2190,-712,-4.13,12.50,57.31,0.87,-0.08,-0.08,-0.48,14,0,3,3,3
37580,231,-350,1016,154,-37,967,871,1911,-1738,-2.19,9.00,59.44,0.87,-0.06,-0.06,-0.49,14,0,3,3,3
37611,-18,-188,984,96,1,975,1077,1944,-1543,0.06,5.56,62.63,0.85,-0.02,-0.04,-0.52,14,0,3,3,3
37640,-61,-73,989,39,36,979,1003,1679,-1738,2.13,2.31,65.69,0.84,0.00,-0.03,-0.54,14,0,3,3,3
37672,-192,87,1183,-8,67,978,918,1397,-958,3.88,-0.44,67.75,0.83,0.03,-0.02,-0.56,14,0,3,3,3
37704,-267,75,977,-45,92,975,769,970,-789,5.38,-2.63,69.06,0.82,0.05,-0.01,-0.57,14,0,3,3,3
37733,-192,54,925,-70,110,971,600,601,-1162,6.44,-4.06,71.00,0.81,0.07,-0.00,-0.58,14,0,3,3,3
37765,-242,78,912,-85,124,968,560,242,-1118,7.31,-5.00,73.00,0.80,0.08,-0.00,-0.59,14,0,3,3,3
37793,-72,320,1046,-90,139,966,569,-97,-1063,8.19,-5.25,75.00,0.79,0.09,-0.01,-0.61,14,0,3,3,3
37828,-125,82,790,-93,146,965,262,-236,-2260,8.56,-5.44,79.69,0.76,0.09,-0.01,-0.64,14,0,3,3,3
37859,-140,-19,1001,-96,146,964,290,-282,-2141,8.63,-5.63,83.88,0.74,0.09,-0.01,-0.67,14,0,3,3,3
37888,-175,21,1181,-94,152,964,405,-461,-1875,8.94,-5.50,87.50,0.72,0.09,-0.02,-0.69,14,0,3,3,3
37918,-13,-1,986,-90,157,963,450,-490,-2172,9.38,-5.19,91.38,0.70,0.09,-0.03,-0.71,14,0,3,3,3
37948,182,43,848,-88,164,962,495,-311,-2473,9.88,-5.25,95.81,0.67,0.09,-0.03,-0.74,14,0,3,3,3
37979,106,131,900,-95,178,959,561,-156,-1783,10.50,-5.50,99.56,0.64,0.10,-0.04,-0.76,14,0,3,3,3
38012,-198,462,1016,-96,187,957,348,-288,-1279,11.06,-5.63,102.25,0.62,0.10,-0.04,-0.77,14,0,3,3,3
38041,-63,321,837,-92,184,958,-31,-500,-1762,10.88,-5.38,105.25,0.60,0.10,-0.05,-0.79,14,0,3,3,3
38071,482,61,880,-80,181,960,-1,-598,-406,10.63,-4.69,107.00,0.59,0.09,-0.05,-0.80,14,0,3,3,3
38100,619,18,927,-73,185,960,396,-375,-1427,10.88,-4.25,109.44,0.57,0.09,-0.06,-0.81,14,0,3,3,3
38130,242,74,1018,-81,196,957,593,-140,-3003,11.56,-4.75,113.94,0.54,0.09,-0.06,-0.83,14,0,3,3,3
38163,166,399,977,-96,203,954,395,-109,-2293,12.00,-5.63,118.88,0.50,0.10,-0.06,-0.86,14,0,3,3,3
38193,102,178,884,-107,200,953,162,-334,-2905,11.81,-6.25,124.13,0.47,0.10,-0.07,-0.88,14,0,3,3,3
38223,-71,-86,860,-109,199,954,365,-560,-2488,11.75,-6.38,129.13,0.43,0.09,-0.07,-0.90,14,0,3,3,3
38253,-118,11,802,-103,213,951,869,-668,-1876,12.63,-6.00,133.06,0.40,0.09,-0.08,-0.91,14,0,3,3,3
38283,-88,171,816,-94,239,946,1091,-756,-1756,14.13,-5.50,136.50,0.37,0.09,-0.10,-0.92,14,0,3,3,3
38316,-124,189,795,-83,267,939,1099,-851,-1587,15.81,-4.81,139.94,0.34,0.09,-0.11,-0.93,14,0,3,3,3
38344,-127,412,791,-71,293,932,947,-830,-1544,17.44,-4.19,143.00,0.31,0.08,-0.13,-0.94,14,0,3,3,3
38377,-226,456,803,-61,310,928,557,-893,-1483,18.50,-3.56,146.00,0.28,0.07,-0.15,-0.95,14,0,3,3,3
38409,-160,206,724,-45,321,925,401,-956,-1041,19.13,-2.63,148.56,0.27,0.07,-0.15,-0.95,14,0,3,3,3
38438,-27,156,826,-25,334,921,551,-837,-497,20.31,-1.13,150.38,0.25,0.06,-0.17,-0.95,14,0,3,3,3
38473,-236,295,864,-9,359,912,668,-604,-764,21.50,-0.50,151.88,0.24,0.05,-0.18,-0.95,14,0,3,3,3
38503,-261,390,945,-1,373,906,328,-509,-720,22.31,-0.06,153.38,0.23,0.05,-0.19,-0.95,14,0,3,3,3
38533,-2,337,965,0,374,906,-43,-302,-790,22.44,0.00,154.94,0.21,0.04,-0.19,-0.96,14,0,3,3,3
38562,66,161,870,-9,372,907,-72,106,-960,22.31,-0.50,156.50,0.20,0.04,-0.19,-0.96,14,0,3,3,3
38592,-61,161,895,-31,371,906,37,451,-1023,22.25,-1.81,158.25,0.19,0.05,-0.19,-0.96,14,0,3,3,3
38623,-90,235,895,-50,371,906,31,556,-1064,22.25,-3.44,160.06,0.17,0.06,-0.18,-0.97,14,0,3,3,3
38654,-380,286,1005,-85,367,904,-114,549,-740,22.13,-5.00,161.31,0.16,0.08,-0.18,-0.97,14,0,3,3,3
38684,-345,186,880,-101,359,906,-340,293,-229,21.56,-5.94,161.88,0.15,0.08,-0.18,-0.97,14,0,3,3,3
38714,-212,99,915,-104,346,911,-466,74,190,20.81,-6.13,161.69,0.16,0.08,-0.17,-0.97,14,0,3,3,3
38744,-216,124,984,-100,334,916,-476,-82,302,20.00,-5.88,161.13,0.16,0.08,-0.16,-0.97,14,0,3,3,3
38773,-204,75,1045,-91,320,922,-482,-260,304,19.13,-5.31,160.56,0.17,0.07,-0.16,-0.97,14,0,3,3,3
38806,-23,57,904,-81,310,926,-353,-183,438,18.44,-4.69,159.88,0.17,0.07,-0.15,-0.97,14,0,3,3,3
39005,-62,11,937,-81,216,953,-538,189,-89,12.75,-4.69,157.19,0.20,0.06,-0.10,-0.97,14,0,3,3,3
39264,24,124,855,0,183,963,222,-483,691,10.75,0.00,152.69,0.24,0.02,-0.09,-0.97,14,0,3,3,3
39294,35,203,987,22,187,962,23,-457,421,11.00,1.25,151.69,0.24,0.01,-0.10,-0.97,14,0,3,3,3
39325,53,135,967,32,186,962,-91,-400,417,10.88,2.19,150.94,0.25,0.01,-0.10,-0.96,14,0,3,3,3
39357,183,77,907,49,181,962,-117,-250,279,10.63,2.81,150.44,0.25,-0.00,-0.10,-0.96,14,0,3,3,3
39387,110,39,893,54,178,962,-52,-71,395,10.44,3.19,149.81,0.26,-0.00,-0.10,-0.96,14,0,3,3,3
39416,101,129,1024,57,175,963,-68,20,305,10.31,3.31,149.13,0.26,-0.00,-0.09,-0.96,14,0,3,3,3
39446,131,79,965,56,172,963,-125,65,127,10.13,3.25,148.81,0.27,-0.00,-0.09,-0.96,14,0,3,3,3
39477,59,60,953,55,169,964,-121,66,137,9.88,3.19,148.63,0.27,-0.00,-0.09,-0.96,14,0,3,3,3
39505,32,37,978,54,165,965,-69,81,269,9.69,3.13,148.19,0.27,-0.00,-0.09,-0.96,14,0,3,3,3
39539,50,83,906,52,164,965,3,80,195,9.63,3.00,147.75,0.28,-0.00,-0.09,-0.96,14,0,3,3,3
39570,42,47,939,53,165,965,80,-72,118,9.69,3.13,147.63,0.28,-0.00,-0.09,-0.96,14,0,3,3,3
39599,92,87,968,58,168,964,89,-198,171,9.88,3.44,147.38,0.28,-0.00,-0.09,-0.96,14,0,3,3,3
39628,109,79,980,66,169,963,56,-216,185,9.94,3.88,147.06,0.28,-0.01,-0.09,-0.95,14,0,3,3,3
39658,95,73,929,71,170,963,24,-100,149,10.00,4.19,146.81,0.28,-0.01,-0.09,-0.95,14,0,3,3,3
39692,119,153,1035,74,169,963,-77,-64,72,9.94,4.31,146.63,0.29,-0.01,-0.09,-0.95,14,0,3,3,3
39723,105,22,940,76,165,963,-139,-60,-120,9.69,4.44,146.75,0.28,-0.01,-0.09,-0.95,14,0,3,3,3
39752,-47,-25,815,78,163,963,-18,-75,57,9.56,4.56,146.81,0.28,-0.01,-0.09,-0.95,14,0,3,3,3
39784,37,68,818,83,164,963,89,-104,601,9.63,4.88,146.06,0.29,-0.02,-0.09,-0.95,14,0,3,3,3
39816,153,135,951,89,163,962,-2,-97,405,9.63,5.19,145.13,0.30,-0.02,-0.09,-0.95,14,0,3,3,3
39845,163,127,932,93,160,962,-117,-76,320,9.31,5.50,144.38,0.30,-0.02,-0.09,-0.95,14,0,3,3,3
39880,257,77,981,95,152,963,-175,60,233,8.94,5.56,143.81,0.31,-0.02,-0.09,-0.95,14,0,3,3,3
39909,151,26,915,90,148,965,-91,201,-170,8.75,5.25,143.94,0.31,-0.02,-0.09,-0.95,14,0,3,3,3
39940,75,68,1067,82,148,965,-25,208,-427,8.69,4.75,144.69,0.30,-0.02,-0.09,-0.95,14,0,3,3,3
39969,107,-14,989,75,150,966,90,154,-350,8.88,4.38,145.25,0.30,-0.01,-0.09,-0.95,14,0,3,3,3
39999,-53,-9,808,70,156,965,169,71,-122,9.13,4.06,145.81,0.29,-0.01,-0.09,-0.95,14,0,3,3,3
40032,-33,237,1008,73,159,964,96,-94,620,9.38,4.31,145.00,0.30,-0.01,-0.09,-0.95,14,0,3,3,3
40062,60,142,969,81,155,964,-206,-192,415,9.13,4.75,144.06,0.31,-0.02,-0.09,-0.95,14,0,3,3,3
40091,-15,-60,735,89,145,965,-252,-237,350,8.56,5.25,143.56,0.31,-0.02,-0.09,-0.95,14,0,3,3,3
40121,147,-33,816,99,139,965,-61,-181,901,8.19,5.81,142.25,0.32,-0.03,-0.08,-0.94,14,0,3,3,3
40152,136,132,1000,107,136,965,0,-98,775,8.06,6.25,140.63,0.34,-0.03,-0.08,-0.94,14,0,3,3,3
40181,75,77,977,113,132,964,-104,-152,506,7.81,6.63,139.63,0.34,-0.03,-0.08,-0.93,14,0,3,3,3
40213,226,-14,973,120,128,964,-46,-135,520,7.56,7.00,138.75,0.35,-0.03,-0.08,-0.93,14,0,3,3,3
40243,78,18,872,124,128,964,110,-65,518,7.56,7.31,137.88,0.36,-0.04,-0.08,-0.93,14,0,3,3,3
40272,255,3,1009,131,131,962,188,-164,487,7.75,7.69,136.81,0.37,-0.04,-0.09,-0.93,14,0,3,3,3
40302,81,-56,906,138,139,960,351,-237,99,8.25,8.06,136.50,0.37,-0.04,-0.09,-0.92,14,0,3,3,3
40332,36,19,844,149,151,957,460,-313,512,8.94,8.69,135.75,0.37,-0.04,-0.10,-0.92,14,0,3,3,3
40365,144,189,882,162,158,954,283,-311,770,9.38,9.50,134.44,0.38,-0.05,-0.11,-0.92,14,0,3,3,3
40393,241,203,1133,173,157,952,-37,-233,468,9.38,10.13,133.38,0.39,-0.05,-0.11,-0.91,14,0,3,3,3
40424,221,41,998,180,151,952,-144,-116,424,9.00,10.56,132.69,0.40,-0.05,-0.11,-0.91,14,0,3,3,3
40454,274,-34,825,181,147,952,-9,57,211,8.75,10.63,132.13,0.40,-0.05,-0.11,-0.91,14,0,3,3,3
40483,249,83,819,176,149,953,85,221,-140,8.88,10.31,132.13,0.40,-0.05,-0.11,-0.91,14,0,3,3,3
40513,212,75,813,165,152,954,58,362,-220,9.06,9.69,132.44,0.40,-0.05,-0.11,-0.91,14,0,3,3,3
40546,111,156,859,151,154,956,-19,462,-218,9.13,8.88,132.75,0.40,-0.04,-0.10,-0.91,14,0,3,3,3
40577,174,104,921,136,152,959,-142,455,-342,9.00,7.94,133.25,0.39,-0.03,-0.10,-0.91,14,0,3,3,3
40606,83,0,847,121,149,961,-131,430,-296,8.81,7.06,133.75,0.39,-0.03,-0.09,-0.92,14,0,3,3,3
40638,-45,70,904,108,148,963,1,345,56,8.75,6.38,133.88,0.39,-0.02,-0.09,-0.92,14,0,3,3,3
40669,36,144,967,102,147,964,-33,201,173,8.69,5.94,133.50,0.39,-0.02,-0.09,-0.92,14,0,3,3,3
40701,68,47,963,98,144,965,-136,10,2,8.38,5.69,133.44,0.39,-0.02,-0.09,-0.92,14,0,3,3,3
40732,-12,16,894,102,140,965,-57,-255,114,8.25,6.19,133.19,0.40,-0.02,-0.09,-0.91,14,0,3,3,3
40761,140,76,934,112,138,964,-30,-214,505,8.13,6.75,132.44,0.40,-0.03,-0.09,-0.91,14,0,3,3,3
40793,183,112,891,120,133,964,-148,-70,214,7.88,7.06,131.75,0.41,-0.03,-0.09,-0.91,14,0,3,3,3
40823,46,68,949,122,128,964,-248,-70,183,7.44,7.19,131.56,0.41,-0.03,-0.08,-0.91,14,0,3,3,3
40852,236,47,1017,124,119,965,-272,27,248,6.88,7.25,131.06,0.41,-0.03,-0.08,-0.91,14,0,3,3,3
40886,87,-22,907,123,109,966,-174,67,69,6.44,7.19,130.88,0.41,-0.03,-0.08,-0.91,14,0,3,3,3
40915,120,-37,901,122,106,967,-42,29,282,6.25,7.13,130.50,0.42,-0.03,-0.08,-0.91,14,0,3,3,3
40945,221,32,1036,121,106,967,99,131,219,6.25,7.06,130.06,0.42,-0.03,-0.08,-0.90,14,0,3,3,3
40975,29,-45,917,115,111,967,181,168,256,6.50,6.75,129.75,0.42,-0.03,-0.08,-0.90,14,0,3,3,3
41005,210,67,1053,114,115,967,153,92,182,6.75,6.63,129.19,0.43,-0.03,-0.08,-0.90,14,0,3,3,3
41038,-83,77,774,110,118,967,65,133,42,6.94,6.44,129.19,0.43,-0.02,-0.08,-0.90,14,0,3,3,3
41069,10,47,844,110,117,967,-13,-57,459,6.88,6.44,128.56,0.43,-0.02,-0.08,-0.90,14,0,3,3,3
41099,71,17,856,117,113,966,-86,-217,411,6.69,6.88,127.63,0.44,-0.03,-0.08,-0.89,14,0,3,3,3
41131,66,22,935,128,107,966,-152,-298,642,6.31,7.50,126.69,0.45,-0.03,-0.08,-0.89,14,0,3,3,3
41159,308,15,927,140,99,965,-134,-303,732,5.88,8.19,125.44,0.46,-0.04,-0.08,-0.89,14,0,3,3,3
41191,209,-130,921,146,96,964,-2,-106,195,5.69,8.63,124.63,0.46,-0.04,-0.08,-0.88,14,0,3,3,3
41226,142,98,901,147,101,964,174,20,1,6.00,8.63,124.56,0.46,-0.04,-0.08,-0.88,14,0,3,3,3
41255,59,39,932,146,105,963,77,-5,-16,6.19,8.56,124.63,0.46,-0.04,-0.08,-0.88,14,0,3,3,3
41285,157,105,915,148,105,963,15,-80,293,6.19,8.75,124.13,0.47,-0.04,-0.08,-0.88,14,0,3,3,3
41315,37,77,906,150,104,963,-137,-20,-113,6.06,8.81,124.31,0.46,-0.04,-0.08,-0.88,14,0,3,3,3
41346,101,-135,954,150,100,963,-117,-54,-426,5.88,8.81,124.94,0.46,-0.04,-0.08,-0.88,14,0,3,3,3
